"Time","AccelX","AccelY","AccelZ"
"1947017","0.5233002","4.1586","8.408142"
"1947037","-0.050369263","4.301422","10.174377"
"1947057","1.3611908","3.6539612","10.926575"
"1947077","0.17338562","3.6968079","9.2317505"
"1947096","-0.55262756","3.3278503","7.541687"
"1947117","-0.87397766","2.4066467","7.079895"
"1947137","-0.66926575","1.9519958","7.36792"
"1947157","-0.53596497","2.606598","9.8078"
"1947177","0.6423187","2.9231873","9.74115"
"1947197","0.24003601","3.082672","8.20343"
"1947217","0.5947113","4.0086365","9.631653"
"1947237","0.6280365","4.6775208","11.316956"
"1947257","-0.42408752","4.0038757","9.2317505"
"1947277","-1.7523346","3.0517273","8.691406"
"1947297","-2.4426422","2.6803894","10.688538"
"1947317","-2.2902985","3.2088318","11.262207"
"1947337","-1.633316","4.468048","9.793518"
"1947357","-1.311966","4.1824036","8.634277"
"1947377","-1.7309113","3.889618","9.734009"
"1947397","-1.8404083","3.4682922","10.919434"
"1947417","-4.2993317","1.9972229","4.3948364"
"1947437","-4.1065216","3.896759","15.613525"
"1947457","-4.6778107","3.1612244","13.209351"
"1947477","-4.396927","3.434967","9.87207"
"1947516","-3.4328766","4.101471","9.722107"
"1947536","-2.992508","3.832489","9.912537"
"1947556","-3.6590118","3.5158997","9.186523"
"1947576","-4.7016144","2.4971008","8.496216"
"1947596","-5.372879","1.4211731","7.129883"
"1947616","-3.9446564","2.8113098","7.144165"
"1947636","-1.8856354","3.594452","8.465271"
"1947656","-2.62117","2.5804138","9.54834"
"1947676","-3.461441","1.433075","8.77948"
"1947696","-2.7092438","1.5687561","7.6797485"
"1947716","-1.5976105","3.1826477","8.800903"
"1947736","-1.754715","2.8589172","9.622131"
"1947756","-1.8023224","1.6996765","8.886597"
"1947776","0.30192566","1.6592102","15.51593"
"1947796","0.78038025","3.3183289","-1.3251953"
"1947816","5.26976","5.82724","2.5048218"
"1947836","7.0669403","4.7513123","5.815918"
"1947856","-9.190994","-0.70925903","12.697571"
"1947876","-1.1239166","0.22860718","12.2453"
"1947896","0.72325134","1.3926086","6.4490967"
"1947916","3.3940277","5.2773743","10.250549"
"1947936","0.35429382","3.5492249","10.314819"
"1947956","1.7682343","0.9927063","10.081543"
"1947976","2.0372162","2.1852722","10.974182"
"1947996","4.56279","5.0750427","9.788757"
"1948016","1.4492645","3.1683655","7.3583984"
"1948036","0.9660492","2.5923157","7.8011475"
"1948056","2.439499","3.0445862","8.955627"
"1948076","1.9491425","2.4304504","9.350769"
"1948096","2.1657562","2.3352356","10.171997"
"1948116","1.9943695","2.5994568","10.12677"
"1948136","2.7846527","3.6730042","7.68927"
"1948156","1.7991791","3.5039978","6.913269"
"1948176","2.651352","2.5851746","10.06012"
"1948196","1.1017303","0.3999939","8.334351"
"1948216","1.5563812","4.9774475","8.310547"
"1948236","1.8658295","2.575653","7.8654175"
"1948256","3.1488495","2.8422546","9.574524"
"1948276","4.736557","2.837494","10.183899"
"1948296","3.1536102","2.113861","7.220337"
"1948316","3.1988373","1.8448792","7.586914"
"1948336","3.3273773","1.1355286","7.1870117"
"1948356","2.753708","0.004852295","6.7823486"
"1948376","5.807724","0.21670532","7.605957"
"1948396","7.9072113","2.3542786","4.8518677"
"1948416","10.20665","2.5256653","3.4950562"
"1948436","13.934311","-3.3538513","4.975647"
"1948456","17.533432","-1.6066589","5.4921875"
"1948476","9.718674","-0.27127075","6.372925"
"1948496","5.5815887","-2.677826","6.5585938"
"1948516","-4.699234","-1.9541931","1.3336792"
"1948536","5.441147","0.10482788","3.847351"
"1948556","2.2371674","-3.0325012","1.9763794"
"1948576","-1.8999176","-8.497833","1.4241333"
"1948596","-0.7644806","-16.24356","0.3125"
"1948616","9.43779","-14.327362","-5.0909424"
"1948636","19.260986","-4.9510803","-2.741516"
"1948656","14.134262","-5.610443","4.2044067"
"1948676","19.260986","-8.745392","15.008911"
"1948696","19.260986","-8.15506","16.560913"
"1948716","19.260986","-1.8994446","7.591675"
"1948736","19.260986","-1.632843","7.625"
"1948756","19.260986","-2.7468567","5.1208496"
"1948776","19.260986","0.42855835","-1.7346191"
"1948796","14.136642","9.847687","-3.434204"
"1948816","12.022873","4.2085876","-19.73677"
"1948836","12.891708","0.5237732","7.951111"
"1948856","9.575851","-2.196991","2.3001099"
"1948876","4.891281","-0.55215454","0.19586182"
"1948896","4.43425","1.6568298","-1.0157471"
"1948917","1.3921356","-0.6473694","-3.3223267"
"1948937","0.50901794","-3.7918396","-2.715332"
"1948957","1.4468842","-7.938446","-0.380188"
"1948977","1.9681854","-10.095062","1.236084"
"1948997","4.3795013","-7.693268","0.5267334"
"1949017","15.436325","-2.31839","1.5455322"
"1949037","4.596115","-3.3633728","-4.343506"
"1949057","5.9791107","-7.314789","-7.6712646"
"1949077","4.574692","-11.273346","1.4836426"
"1949097","4.600876","-10.609222","-3.1795044"
"1949117","2.2324066","-8.014618","-2.798645"
"1949137","3.0131683","-7.1719666","-1.7679443"
"1949157","3.5082855","-9.576141","-0.7848511"
"1949177","2.4299774","-13.22525","-1.9869385"
"1949197","1.7111053","-14.910553","-2.9700317"
"1949217","2.0062714","-13.344269","-0.7015381"
"1949237","2.260971","-9.623749","-0.94195557"
"1949257","1.6016083","-8.831085","-1.9250488"
"1949277","2.5013885","-19.51419","-3.0271606"
"1949297","1.1469574","-13.080048","-2.529663"
"1949317","4.9912567","-5.577118","0.22442627"
"1949337","-3.9708405","-13.270477","-2.7010498"
"1949357","1.458786","-10.4687805","-2.9295654"
"1949377","1.0231781","-10.328339","-2.1535645"
"1949397","1.4183197","-8.297882","-2.1654663"
"1949417","1.670639","-9.380951","-2.0631104"
"1949437","2.4133148","-11.370941","-3.529419"
"1949457","0.4875946","-11.680389","-5.069519"
"1949477","-1.6642609","-9.454742","-3.7365112"
"1949497","-0.033706665","-8.804901","-1.9012451"
"1949517","-4.3826447","-9.649933","-3.0247803"
"1949537","-2.4426422","-8.514496","-1.9012451"
"1949557","-3.5971222","-9.661835","-3.169983"
"1949577","-2.5592804","-11.209076","-2.7486572"
"1949597","-0.44075012","-10.506866","-3.0462036"
"1949617","-3.8146973E-4","-9.37381","-3.1628418"
"1949637","0.33287048","-10.454498","-1.5560913"
"1949657","-0.057510376","-11.485199","-2.5344238"
"1949677","-0.82637024","-10.935333","-2.125"
"1949697","-1.2381744","-9.718964","-3.2437744"
"1949717","-2.0594025","-9.114349","-3.779358"
"1949737","-2.3093414","-8.562103","-4.2958984"
"1949757","-2.723526","-7.4290466","-3.5222778"
"1949777","-2.4521637","-6.860138","-3.5508423"
"1949797","-1.5738068","-6.348358","-3.8912354"
"1949817","-0.4169464","-6.341217","-3.5722656"
"1949837","0.5947113","-5.660431","-3.5460815"
"1949857","0.9470062","-4.7416077","-3.8864746"
"1949877","1.3445282","-4.917755","-4.5196533"
"1949897","1.2445526","-5.674713","-4.8933716"
"1949917","1.5897064","-6.0103455","-5.3980103"
"1949937","1.0303192","-9.747528","-6.826233"
"1949957","1.6396942","-12.887238","-9.546997"
"1949977","0.41142273","-12.00412","-8.678162"
"1949997","-0.48121643","-9.992706","-6.973816"
"1950017","-1.5119171","-7.105316","-4.6672363"
"1950037","-1.5119171","-5.7746887","-3.907898"
"1950057","-1.0215607","-5.84848","-4.1173706"
"1950077","-0.34077454","-6.391205","-4.3149414"
"1950097","0.701828","-7.571869","-5.01001"
"1950117","1.5087738","-8.378815","-5.433716"
"1950137","1.1731415","-8.942963","-5.678894"
"1950157","-0.8525543","-7.862274","-5.383728"
"1950177","-1.883255","-7.5361633","-6.16687"
"1950197","-0.23365784","-7.64328","-5.709839"
"1950217","1.9443817","-7.3314514","-4.022156"
"1950237","2.4514008","-7.7408752","-4.3934937"
"1950257","1.0041351","-7.593292","-6.1573486"
"1950277","0.6756439","-8.071747","-6.3239746"
"1950297","0.9636688","-9.111969","-6.885742"
"1950317","1.6611176","-9.295258","-6.1121216"
"1950337","1.1588593","-8.264557","-5.864563"
"1950357","-0.369339","-6.855377","-5.0980835"
"1950377","-0.63594055","-6.5483093","-4.607727"
"1950397","0.80418396","-8.300262","-5.01001"
"1950417","1.9634247","-9.461884","-5.7265015"
"1950437","2.1276703","-8.842987","-5.8431396"
"1950457","2.0348358","-7.7622986","-5.221863"
"1950478","1.8087006","-7.3838196","-5.2313843"
"1950498","1.2017059","-7.5742493","-4.986206"
"1950518","1.2945404","-8.526398","-5.58844"
"1950538","1.6515961","-9.138153","-5.293274"
"1950558","1.5040131","-8.159821","-4.9838257"
"1950578","1.4706879","-7.445709","-4.895752"
"1950598","1.2873993","-7.5956726","-5.038574"
"1950618","1.7039642","-8.193146","-5.417053"
"1950638","1.8943939","-8.390717","-5.5289307"
"1950658","1.8991547","-8.152679","-5.3027954"
"1950678","1.4802094","-7.700409","-4.990967"
"1950698","1.7944183","-8.112213","-5.01001"
"1950718","2.0086517","-8.247894","-5.2599487"
"1950738","2.0062714","-8.312164","-5.4194336"
"1950758","2.241928","-8.128876","-5.26947"
"1950778","2.1847992","-7.983673","-5.500366"
"1950798","1.792038","-7.571869","-5.428955"
"1950818","2.0586395","-7.4980774","-5.217102"
"1950838","2.215744","-7.700409","-5.421814"
"1950858","2.2205048","-7.988434","-5.39563"
"1950878","1.8943939","-8.045563","-5.536072"
"1950898","1.9681854","-8.307404","-5.293274"
"1950918","1.7230072","-8.597809","-5.293274"
"1950938","1.3921356","-8.216949","-4.664856"
"1950958","1.2945404","-8.276459","-4.612488"
"1950978","1.4326019","-8.693024","-4.7957764"
"1950998","1.5325775","-8.502594","-4.9362183"
"1951018","1.8729706","-8.250275","-4.9885864"
"1951038","1.8610687","-8.043182","-4.824341"
"1951058","2.1633759","-8.143158","-4.967163"
"1951078","2.2395477","-8.102692","-5.0861816"
"1951098","2.291916","-7.8313293","-4.998108"
"1951118","2.5204315","-7.8337097","-5.2956543"
"1951138","2.70372","-8.09079","-5.371826"
"1951158","2.144333","-7.7813416","-5.2504272"
"1951178","2.2823944","-7.6861267","-5.3170776"
"1951198","2.2823944","-7.6385193","-5.1932983"
"1951218","2.3181","-7.719452","-5.229004"
"1951238","2.3490448","-8.152679","-5.198059"
"1951258","1.8896332","-8.152679","-5.2456665"
"1951278","1.965805","-7.9146423","-5.159973"
"1951298","1.9134369","-7.874176","-5.345642"
"1951318","2.0395966","-7.7861023","-4.926697"
"1951338","2.2585907","-8.033661","-4.9624023"
"1951358","2.215744","-8.133636","-5.286133"
"1951378","2.0919647","-8.043182","-5.159973"
"1951398","1.8110809","-7.8503723","-5.152832"
"1951418","1.9681854","-7.821808","-5.262329"
"1951438","2.3990326","-8.264557","-5.3170776"
"1951458","2.2942963","-8.5383","-5.5860596"
"1951478","1.8158417","-7.9622498","-5.4884644"
"1951498","1.9443817","-7.5742493","-5.224243"
"1951518","1.958664","-7.8836975","-5.236145"
"1951539","2.094345","-8.2621765","-5.114746"
"1951559","1.9729462","-8.045563","-5.505127"
"1951579","2.0586395","-7.6599426","-5.352783"
"1951599","2.1919403","-7.6408997","-4.955261"
"1951619","2.196701","-7.83609","-5.119507"
"1951639","2.3847504","-8.231232","-5.2313843"
"1951659","2.3657074","-8.0503235","-5.338501"
"1951679","2.280014","-7.6337585","-4.993347"
"1951699","2.2062225","-7.5623474","-4.9362183"
"1951719","2.2942963","-7.802765","-4.9243164"
"1951739","2.3728485","-8.081268","-5.2147217"
"1951759","2.3466644","-8.088409","-5.493225"
"1951779","2.0253143","-7.757538","-5.2075806"
"1951799","2.0395966","-7.564728","-4.869568"
"1951819","2.1562347","-7.931305","-5.0076294"
"1951839","2.1800385","-8.250275","-5.100464"
"1951859","2.1395721","-8.102692","-5.5146484"
"1951879","1.9919891","-7.840851","-5.376587"
"1951899","2.0205536","-7.9098816","-4.9385986"
"1951919","2.144333","-8.171722","-5.0528564"
"1951939","2.0895844","-8.181244","-5.326599"
"1951959","2.151474","-7.8646545","-5.102844"
"1951979","2.1538544","-7.912262","-5.2956543"
"1952001","2.0776825","-8.024139","-5.1480713"
"1952020","2.0586395","-7.976532","-5.081421"
"1952039","2.0824432","-7.874176","-5.102844"
"1952059","2.2109833","-7.798004","-5.1671143"
"1952079","2.1467133","-7.907501","-5.319458"
"1952099","2.272873","-8.074127","-5.2123413"
"1952119","2.1800385","-8.176483","-5.286133"
"1952139","2.0395966","-7.802765","-5.157593"
"1952159","2.1348114","-7.7051697","-5.1956787"
"1952179","2.2395477","-7.795624","-5.036194"
"1952199","2.1276703","-8.131256","-5.2456665"
"1952219","2.1752777","-8.224091","-5.286133"
"1952241","2.041977","-7.828949","-5.1242676"
"1952260","2.1538544","-7.7742004","-4.843384"
"1952280","2.2823944","-8.024139","-5.050476"
"1952300","2.1681366","-7.9931946","-5.114746"
"1952320","2.3847504","-8.293121","-5.452759"
"1952340","2.1871796","-8.047943","-5.0861816"
"1952360","1.9634247","-7.4933167","-4.993347"
"1952380","2.3157196","-7.8337097","-4.8148193"
"1952400","2.1990814","-8.150299","-5.319458"
"1952420","2.030075","-7.8955994","-5.2075806"
"1952440","2.375229","-8.069366","-5.352783"
"1952460","2.0634003","-7.9789124","-5.13855"
"1952480","2.0134125","-7.7932434","-4.9885864"
"1952500","2.215744","-7.886078","-4.907654"
"1952520","2.132431","-8.036041","-5.4884644"
"1952540","2.106247","-7.7861023","-5.198059"
"1952560","2.2895355","-7.8694153","-5.102844"
"1952580","2.0895844","-7.9098816","-5.198059"
"1952600","2.2038422","-7.9289246","-5.229004"
"1952620","2.2704926","-7.9336853","-5.0838013"
"1952641","2.2038422","-7.9860535","-5.2766113"
"1952660","2.344284","-8.074127","-5.4432373"
"1952681","1.8920135","-7.6908875","-5.326599"
"1952701","2.1800385","-8.047943","-5.121887"
"1952721","1.9443817","-7.990814","-5.1242676"
"1952741","1.9277191","-7.6385193","-5.2647095"
"1952761","2.4490204","-7.778961","-5.1480713"
"1952781","2.3300018","-8.181244","-5.248047"
"1952801","2.2371674","-8.083649","-5.2194824"
"1952821","2.0634003","-7.726593","-5.2266235"
"1952841","2.1110077","-7.6337585","-4.993347"
"1952861","2.2443085","-8.002716","-5.262329"
"1952881","2.2466888","-8.071747","-5.3218384"
"1952901","2.291916","-8.043182","-5.4813232"
"1952921","2.0157928","-8.016998","-5.0195313"
"1952941","1.9324799","-8.147919","-5.2052"
"1952961","1.8658295","-7.8456116","-5.2456665"
"1952980","1.7825165","-7.7408752","-5.4837036"
"1953001","1.8229828","-7.559967","-4.8814697"
"1953021","1.9491425","-8.0312805","-5.3289795"
"1953041","2.4942474","-8.895355","-5.5075073"
"1953061","1.8515472","-8.126495","-5.3599243"
"1953081","1.7944183","-7.2886047","-5.0861816"
"1953101","1.7039642","-7.214813","-4.743408"
"1953121","2.2205048","-8.047943","-5.043335"
"1953141","2.4585419","-8.612091","-5.878845"
"1953161","2.2252655","-8.188385","-5.5932007"
"1953180","2.2228851","-7.5242615","-4.8981323"
"1953201","1.8610687","-7.2362366","-4.7386475"
"1953221","2.208603","-7.96463","-4.890991"
"1953241","2.2276459","-8.47641","-5.119507"
"1953261","2.3157196","-8.238373","-5.179016"
"1953281","2.2062225","-7.945587","-5.0409546"
"1953301","2.0586395","-7.8503723","-5.133789"
"1953321","2.0586395","-7.919403","-5.057617"
"1953341","1.8705902","-7.943207","-5.183777"
"1953361","2.1943207","-8.076508","-5.107605"
"1953381","2.022934","-8.074127","-5.2194824"
"1953400","1.7610931","-7.8646545","-5.288513"
"1953421","1.9039154","-7.9527283","-5.2075806"
"1953440","1.8206024","-7.8503723","-5.4956055"
"1953460","2.1681366","-7.8456116","-5.1052246"
"1953481","1.9300995","-7.8575134","-5.1290283"
"1953501","2.2109833","-8.238373","-5.4837036"
"1953521","2.25383","-7.924164","-5.3099365"
"1953541","2.2871552","-7.6385193","-5.14093"
"1953561","2.0919647","-7.5956726","-5.4194336"
"1953581","2.0824432","-7.417145","-5.0980835"
"1953601","2.408554","-7.8146667","-5.221863"
"1953621","2.1490936","-7.893219","-5.7074585"
"1953641","2.0657806","-7.617096","-5.5336914"
"1953661","2.1157684","-7.8337097","-5.5265503"
"1953681","1.9515228","-7.945587","-5.8169556"
"1953701","1.7206268","-7.7242126","-5.100464"
"1953721","1.9896088","-8.045563","-5.2194824"
"1953741","1.8039398","-8.700165","-5.7907715"
"1953761","1.496872","-8.293121","-5.486084"
"1953781","1.3088226","-7.7218323","-5.0861816"
"1953801","0.8517914","-7.6599426","-4.8981323"
"1953821","1.311203","-8.524017","-5.055237"
"1953841","1.8682098","-9.449982","-5.4646606"
"1953861","1.4825897","-9.154816","-5.2647095"
"1953881","1.349289","-8.633514","-5.043335"
"1953901","1.5063934","-8.559723","-4.5672607"
"1953921","2.196701","-9.790375","-4.8529053"
"1953941","2.5323334","-11.123383","-4.6743774"
"1953961","2.1800385","-10.897247","-4.529175"
"1953980","1.8039398","-9.473785","-4.0197754"
"1954001","1.9300995","-9.035797","-3.7174683"
"1954021","2.2585907","-9.033417","-4.0316772"
"1954041","2.0729218","-9.181","-4.317322"
"1954061","1.5992279","-8.916779","-3.548462"
"1954081","1.1517181","-8.673981","-3.010498"
"1954101","1.6825409","-9.3333435","-2.7129517"
"1954121","2.5013885","-10.199799","-2.439209"
"1954141","3.0155487","-10.290253","-2.4606323"
"1954161","2.344284","-9.404755","-2.4677734"
"1954181","1.875351","-8.552582","-2.8938599"
"1954201","1.7420502","-8.200287","-2.4820557"
"1954221","1.9967499","-8.247894","-3.2913818"
"1954241","1.8848724","-8.362152","-2.8795776"
"1954261","1.9443817","-8.457367","-2.0059814"
"1954281","1.7253876","-8.2621765","-2.246399"
"1954301","1.6016083","-7.976532","-3.0152588"
"1954320","1.753952","-8.038422","-2.965271"
"1954341","2.030075","-8.41452","-2.374939"
"1954361","1.625412","-8.47403","-2.3273315"
"1954381","1.3207245","-7.9336853","-2.8867188"
"1954400","1.6301727","-8.2621765","-2.4368286"
"1954421","1.5254364","-9.2690735","-2.298767"
"1954441","1.4016571","-9.707062","-2.4249268"
"1954461","1.2445526","-9.059601","-1.9607544"
"1954481","0.8589325","-8.750153","-2.0464478"
"1954501","0.66374207","-9.088165","-1.2276001"
"1954521","0.21147156","-9.538055","-1.2133179"
"1954541","0.6875458","-9.709442","-1.9536133"
"1954561","1.6182709","-9.723724","-1.8631592"
"1954581","1.3159637","-9.473785","-1.5441895"
"1954601","1.0041351","-9.557098","-0.7110596"
"1954621","1.0565033","-9.918915","-0.8134155"
"1954641","0.996994","-9.923676","-1.4537354"
"1954661","1.0684052","-9.933197","-1.7346191"
"1954681","1.0231781","-9.640411","-0.7681885"
"1954701","-0.19319153","-9.43808","-0.9133911"
"1954721","-0.9120636","-9.11673","-1.2894897"
"1954741","-0.91682434","-9.4999695","-1.7941284"
"1954762","-0.61927795","-10.068878","-2.2368774"
"1954781","-0.6145172","-10.011749","-2.5010986"
"1954801","-0.8192291","-9.968903","-2.465393"
"1954821","-0.5597687","-10.249786","-2.151184"
"1954841","-0.3526764","-9.957001","-2.6534424"
"1954862","-0.31459045","-8.962006","-3.465149"
"1954882","0.14958191","-8.416901","-3.8198242"
"1954902","1.6135101","-8.685883","-3.5079956"
"1954922","2.9560394","-9.545197","-3.3270874"
"1954942","3.498764","-10.221222","-2.6296387"
"1954962","2.299057","-9.597565","-1.3989868"
"1954982","-0.2955475","-9.211945","-0.3944702"
"1955002","-2.1641388","-8.528778","-1.4727783"
"1955021","-3.2091217","-8.297882","-4.403015"
"1955042","-4.513565","-8.547821","-5.8026733"
"1955061","-4.5944977","-8.171722","-2.0393066"
"1955081","-1.569046","-8.488312","1.6478882"
"1955102","-0.20985413","-9.661835","-0.27783203"
"1955121","-0.14796448","-10.004608","-1.8893433"
"1955141","-0.56214905","-10.46402","-3.158081"
"1955162","-0.26460266","-9.773712","-3.029541"
"1955181","-0.26698303","-9.166718","-2.7438965"
"1955201","-0.60261536","-8.969147","-2.8057861"
"1955222","-0.9549103","-9.611847","-1.8417358"
"1955241","-1.2786407","-9.607086","-1.6513062"
"1955261","-1.1929474","-8.909637","-1.6394043"
"1955282","-0.7454376","-8.488312","-2.015503"
"1955301","-0.059890747","-8.235992","-1.118103"
"1955321","0.37571716","-9.114349","-1.1633301"
"1955341","0.1829071","-10.099823","-1.2537842"
"1955361","-0.012283325","-10.383087","-0.8919678"
"1955381","-0.78352356","-10.20932","-0.53253174"
"1955402","-2.4902496","-10.5520935","-0.77770996"
"1955421","-3.4066925","-10.752045","-1.6203613"
"1955441","-2.9496613","-9.95462","-1.6608276"
"1955462","-2.1641388","-9.442841","-1.137146"
"1955482","-1.14534","-9.11911","0.19110107"
"1955502","-0.48835754","-9.230988","1.5336304"
"1955522","-0.67878723","-9.483307","1.2027588"
"1955541","-0.75971985","-9.511871","0.76953125"
"1955561","-1.1643829","-9.409515","0.3624878"
"1955582","-1.5761871","-9.752289","-0.07788086"
"1955601","-1.5714264","-9.726105","0.32440186"
"1955621","-1.3690948","-9.476166","0.95758057"
"1955641","-1.3548126","-9.088165","0.99090576"
"1955661","-1.504776","-9.707062","0.66241455"
"1955683","-1.1191559","-10.114105","0.45056152"
"1955702","-0.8287506","-9.709442","0.27679443"
"1955723","-0.6549835","-9.388092","0.6647949"
"1955741","-1.0501251","-9.390472","0.9694824"
"1955762","-1.4452667","-9.833221","0.88378906"
"1955782","-1.6952057","-9.797516","0.7005005"
"1955801","-1.1858063","-9.478546","0.38867188"
"1955821","-0.7049713","-9.521393","0.54815674"
"1955841","-0.30506897","-9.716583","0.8076172"
"1955861","-0.57167053","-9.861786","0.7504883"
"1955881","-0.72639465","-9.699921","0.6148071"
"1955902","-0.82398987","-9.773712","0.62194824"
"1955922","-0.7454376","-9.978424","0.19348145"
"1955941","-0.5097809","-10.111725","0.8052368"
"1955962","-0.4597931","-9.830841","1.0361328"
"1955981","-0.67640686","-9.580902","1.2218018"
"1956001","-0.8620758","-9.6475525","1.33844"
"1956022","-1.3548126","-9.69278","1.1004028"
"1956041","-1.4881134","-9.592804","1.2598877"
"1956062","-1.4000397","-9.754669","1.1765747"
"1956082","-1.042984","-9.549957","1.1551514"
"1956101","-0.7716217","-9.571381","1.2670288"
"1956121","-0.60261536","-9.683258","1.40271"
"1956142","-0.93348694","-9.787994","1.2503662"
"1956161","-0.75257874","-9.728485","1.1551514"
"1956183","-0.85969543","-9.573761","1.3289185"
"1956202","-1.0525055","-9.899872","1.1004028"
"1956221","-0.5740509","-9.8784485","0.524353"
"1956242","-0.18605042","-9.828461","0.7076416"
"1956262","-0.09559631","-9.787994","1.1956177"
"1956282","-0.50502014","-9.56662","1.4431763"
"1956301","-0.88349915","-9.321442","1.3908081"
"1956322","-0.7621002","-9.471405","1.1884766"
"1956342","-0.40504456","-9.69516","1.0789795"
"1956361","-0.5002594","-9.616608","1.0742188"
"1956382","-0.8144684","-9.521393","1.4312744"
"1956401","-1.1048737","-9.868927","1.0980225"
"1956421","-1.0691681","-10.40213","0.5529175"
"1956441","-0.5978546","-10.076019","0.91711426"
"1956461","-0.0717926","-9.89035","0.6314697"
"1956481","-0.08607483","-9.571381","1.281311"
"1956501","-0.49549866","-9.638031","1.3360596"
"1956521","-0.63594055","-9.702301","0.9290161"
"1956541","-0.6502228","-9.790375","0.69573975"
"1956561","-0.8644562","-9.785614","0.93377686"
"1956581","-0.9620514","-9.666595","1.0480347"
"1956602","-0.7716217","-9.528534","1.1503906"
"1956622","-0.664505","-9.602325","1.3289185"
"1956642","-0.6883087","-9.754669","1.2670288"
"1956662","-0.7644806","-9.69754","1.236084"
"1956683","-0.6145172","-9.626129","1.2955933"
"1956702","-0.5074005","-9.742767","1.4217529"
"1956722","-0.41218567","-9.726105","1.3979492"
"1956742","-0.5573883","-9.718964","1.4384155"
"1956761","-0.7002106","-9.7308655","1.3289185"
"1956782","-0.6978302","-9.668976","1.0218506"
"1956802","-0.7240143","-9.880829","0.9528198"
"1956822","-0.6478424","-9.871307","0.9123535"
"1956842","-0.6906891","-9.811798","0.87664795"
"1956862","-0.66926575","-9.778473","0.7814331"
"1956881","-0.47407532","-10.161713","0.7219238"
"1956902","0.059127808","-10.171234","0.5076904"
"1956922","0.1257782","-9.968903","0.28155518"
"1956942","-0.38362122","-10.076019","0.055419922"
"1956962","-0.37886047","-10.135529","0.022094727"
"1956982","-0.28840637","-9.94986","-1.1966553"
"1957002","-1.1548615","-10.202179","-0.66345215"
"1957022","-1.0287018","-10.061737","-1.5727539"
"1957042","-1.1739044","-10.4045105","-2.3011475"
"1957062","-1.0477448","-10.823456","-3.465149"
"1957082","-0.6311798","-10.91153","-4.24115"
"1957102","-0.26698303","-10.937714","-4.588684"
"1957121","-1.0144196","-10.885345","-4.9433594"
"1957142","-1.311966","-11.266205","-6.2025757"
"1957161","-1.0786896","-11.923187","-5.7645874"
"1957181","0.25193787","-10.433075","-3.4603882"
"1957201","0.018661499","-8.726349","-2.593933"
"1957221","1.4230804","-7.3766785","-1.7893677"
"1957241","2.8679657","-6.776825","-1.7131958"
"1957261","1.523056","-7.4028625","-2.8057861"
"1957281","-1.023941","-6.943451","-4.3482666"
"1957301","-2.1831818","-6.443573","-5.1623535"
"1957321","-1.6618805","-5.943695","-4.524414"
"1957342","-0.90016174","-5.712799","-3.4365845"
"1957363","-0.23365784","-6.474518","-3.350891"
"1957383","0.4376068","-6.9267883","-4.3149414"
"1957403","0.6280365","-7.3885803","-4.5910645"
"1957423","0.22099304","-7.7813416","-4.324463"
"1957442","-0.8144684","-7.8075256","-4.6696167"
"1957462","-1.3095856","-7.5123596","-4.781494"
"1957483","-1.4833527","-7.6194763","-4.6553345"
"1957503","-1.6809235","-8.036041","-4.8790894"
"1957523","-1.2024689","-8.562103","-4.721985"
"1957542","-0.6883087","-8.707306","-4.362549"
"1957563","-0.59547424","-8.390717","-4.1054688"
"1957583","-1.1429596","-7.757538","-3.9102783"
"1957603","-1.8142242","-7.4076233","-3.6174927"
"1957623","-2.0808258","-7.1648254","-3.388977"
"1957642","-2.3355255","-6.641144","-3.8483887"
"1957663","-2.7021027","-9.7951355","-5.3170776"
"1957683","-1.292923","-15.08194","-10.3349"
"1957703","2.337143","-14.582062","-7.4189453"
"1957723","0.7113495","-11.266205","-5.645569"
"1957742","-0.37886047","-8.788239","-4.607727"
"1957763","-0.7454376","-7.605194","-3.9769287"
"1957783","-0.9953766","-7.348114","-3.8555298"
"1957803","-1.2500763","-6.9006042","-3.831726"
"1957823","-1.5928497","-6.8458557","-3.7507935"
"1957842","-1.6428375","-7.3124084","-3.446106"
"1957863","-1.4262238","-7.824188","-3.112854"
"1957883","-0.64308167","-8.750153","-3.5389404"
"1957903","0.11149597","-9.533295","-4.36969"
"1957923","0.20909119","-9.671356","-4.5267944"
"1957942","-0.5074005","-9.164337","-4.4958496"
"1957963","-1.0453644","-8.9263","-4.838623"
"1957983","-1.1120148","-8.9548645","-4.81958"
"1958002","-1.4643097","-8.471649","-4.229248"
"1958023","-1.5428619","-8.35025","-4.131653"
"1958042","-0.9929962","-8.533539","-4.088806"
"1958063","-0.49073792","-8.99295","-4.4768066"
"1958083","-0.121780396","-8.952484","-4.472046"
"1958103","-0.37886047","-8.524017","-3.9650269"
"1958123","-0.56214905","-8.707306","-4.024536"
"1958142","-0.53596497","-9.171478","-4.3554077"
"1958163","-0.5645294","-9.135773","-4.30542"
"1958183","-0.73591614","-8.847748","-4.234009"
"1958203","-0.9263458","-8.609711","-4.126892"
"1958223","-0.8358917","-8.628754","-4.195923"
"1958242","-0.9430084","-8.783478","-4.357788"
"1958263","-0.7716217","-9.050079","-4.4744263"
"1958283","-0.61927795","-8.92868","-4.0792847"
"1958303","-0.5645294","-8.688263","-4.0150146"
"1958323","-0.5335846","-8.869171","-4.1435547"
"1958343","-0.48597717","-9.000092","-4.388733"
"1958363","-0.60975647","-9.071503","-4.5267944"
"1958382","-1.2476959","-9.0381775","-4.5791626"
"1958404","-1.2572174","-9.485687","-5.1433105"
"1958423","-1.7689972","-9.495209","-5.14093"
"1958443","-2.8496857","-8.764435","-4.324463"
"1958463","-3.0282135","-8.316925","-3.2509155"
"1958483","-3.2472076","-7.700409","-3.7555542"
"1958504","-3.0853424","-7.8051453","-3.703186"
"1958523","-2.4069366","-8.693024","-3.34375"
"1958543","-2.1046295","-9.214325","-3.0390625"
"1958563","-2.575943","-9.252411","-2.6534424"
"1958582","-3.3638458","-8.921539","-2.760559"
"1958603","-3.4400177","-8.581146","-2.9890747"
"1958623","-2.6259308","-8.931061","-3.60083"
"1958643","-1.780899","-9.790375","-4.3530273"
"1958663","-2.4212189","-9.735626","-4.164978"
"1958682","-3.0591583","-9.323822","-3.4151611"
"1958702","-2.62117","-9.392853","-3.510376"
"1958723","-2.2902985","-9.511871","-3.9745483"
"1958743","-2.1950836","-9.471405","-4.3220825"
"1958762","-1.7856598","-9.514252","-4.805298"
"1958783","-1.0739288","-9.6285095","-4.5625"
"1958803","-1.5619049","-9.073883","-4.312561"
"1958822","-1.5214386","-9.219086","-3.7698364"
"1958843","-0.959671","-9.295258","-4.0983276"
"1958863","-1.20961","-8.7239685","-4.403015"
"1958882","-1.5809479","-7.7432556","-4.1364136"
"1958903","-1.633316","-7.174347","-4.0602417"
"1958923","-1.2262726","-6.693512","-4.029297"
"1958943","-0.98109436","-5.9579773","-4.1364136"
"1958963","-3.0091705","-5.0534363","-4.2720947"
"1958983","-4.8230133","-3.896576","-5.1766357"
"1959002","1.1731415","-6.7530212","2.1168213"
"1959023","8.278549","-11.487579","2.692871"
"1959043","-0.6811676","-13.646576","-11.187073"
"1959062","0.5780487","-10.028412","-1.6036987"
"1959083","3.7534637","-9.140533","2.2834473"
"1959103","5.857712","-9.861786","1.2051392"
"1959123","6.724167","-11.10672","-0.93481445"
"1959143","6.564682","-13.446625","-2.0464478"
"1959163","2.3157196","-13.777496","-2.8581543"
"1959183","1.0660248","-9.521393","-0.7324829"
"1959203","1.9896088","-7.957489","-1.6870117"
"1959223","2.3061981","-10.430695","-1.5394287"
"1959243","1.1779022","-13.110992","-3.6293945"
"1959263","-1.9594269","-11.761322","2.250122"
"1959283","-2.897293","-9.2500305","2.647644"
"1959304","0.6518402","-9.204803","1.8787842"
"1959323","5.6625214","-15.396149","5.3065186"
"1959343","8.4856415","-19.51419","1.8145142"
"1959363","7.1454926","-17.376617","-3.0723877"
"1959383","2.787033","-16.084076","-5.243286"
"1959403","1.6301727","-19.280914","-8.780518"
"1959423","3.2369232","-18.883392","-7.7355347"
"1959443","-0.07417297","-11.320953","-11.532227"
"1959463","6.674179","-5.9270325","-10.40155"
"1959484","11.782455","-1.9518127","-7.711731"
"1959503","7.83342","-2.5112","-0.09454346"
"1959523","1.8325043","-4.3036194","4.013977"
"1959543","4.0652924","-7.759918","-5.697937"
"1959564","2.7370453","-13.989349","-4.7981567"
"1959584","-1.0287018","-19.51419","-1.2252197"
"1959604","-2.337906","-19.51419","0.47198486"
"1959623","-0.45741272","-19.51419","5.323181"
"1959643","-0.36219788","-19.51419","-0.7896118"
"1959663","5.103134","-19.280914","-5.659851"
"1959684","5.4078217","-19.51419","-7.7783813"
"1959703","3.4011688","-16.314972","-4.9766846"
"1959723","1.4849701","-6.3174133","5.808777"
"1959743","-4.437393","0.2024231","10.0529785"
"1959763","-9.562332","6.5032654","10.338623"
"1959783","-9.909866","7.1911926","7.375061"
"1959804","-8.967239","5.7677307","6.3134155"
"1959824","-7.2819366","6.996002","7.0584717"
"1959843","-4.2517242","5.410675","3.0808716"
"1959864","8.890305","-1.3329163","-7.5355835"
"1959883","4.7556","-9.497589","-6.5025024"
"1959903","-3.563797","-19.51419","5.263672"
"1959924","-2.0974884","-19.51419","0.43865967"
"1959943","1.477829","-7.5385437","3.8878174"
"1959963","-2.5711823","-11.699432","-0.15881348"
"1959984","-0.7549591","-15.600861","3.571228"
"1960003","4.3152313","-19.51419","7.575012"
"1960024","3.8820038","-19.51419","1.5788574"
"1960044","0.38523865","-18.635834","-12.024963"
"1960065","0.5113983","-18.595367","-10.058777"
"1960084","7.2597504","-15.627045","-12.567688"
"1960103","6.7717743","-9.257172","-15.997803"
"1960123","8.557053","-4.2536316","-7.8974"
"1960143","10.418503","-0.6711731","-3.491333"
"1960163","7.6572723","1.8210754","-2.5844116"
"1960183","1.3611908","-2.6445007","-3.21521"
"1960204","-0.28126526","-9.483307","-2.8890991"
"1960223","0.73753357","-15.643707","-1.2871094"
"1960243","-0.9858551","-19.51419","1.781189"
"1960264","-9.61232","-19.51419","5.5302734"
"1960283","-0.1955719","-19.51419","-4.510132"
"1960303","6.10289","-19.51419","-4.4172974"
"1960324","3.8272552","-18.697723","-6.735779"
"1960343","4.619919","-14.317841","-4.1292725"
"1960363","3.313095","-8.814423","1.8287964"
"1960384","0.1995697","-3.98703","5.323181"
"1960403","-3.2067413","1.5949402","7.04657"
"1960425","-6.346451","3.8396301","5.2279663"
"1960443","-8.550674","8.126678","9.705444"
"1960463","-8.143631","10.092865","10.498108"
"1960483","-3.749466","10.180939","4.0425415"
"1960504","-0.30030823","5.0226746","-0.68011475"
"1960524","5.78154","-2.3874207","-19.73677"
"1960543","9.321152","-19.51419","19.262634"
"1960564","-11.028641","-19.51419","-16.597656"
"1960583","2.196701","-8.319305","19.262634"
"1960603","-1.33815","-2.4826355","0.52911377"
"1960624","4.6580048","-11.923187","-5.3242188"
"1960643","4.812729","-19.51419","4.361511"
"1960663","4.36998","-19.51419","2.8856812"
"1960684","-2.1498566","-15.865082","1.0361328"
"1960703","-7.162918","-12.999115","3.276062"
"1960723","-5.815628","-17.286163","-3.6484375"
"1960744","1.8991547","-19.51419","-10.956177"
"1960763","6.928879","-19.373749","-13.108032"
"1960783","3.4844818","-11.625641","-16.200134"
"1960804","7.9738617","-8.288361","-12.808105"
"1960824","12.6489105","-2.8634949","-6.42395"
"1960844","9.725815","-0.2831726","-3.1033325"
"1960864","4.184311","-0.083221436","4.378174"
"1960884","-1.0596466","-6.1341248","3.4117432"
"1960904","1.2350311","-10.673492","1.0289917"
"1960924","3.1702728","-19.083344","-1.303772"
"1960944","1.375473","-19.51419","5.6445313"
"1960963","3.1536102","-19.51419","7.8582764"
"1960984","1.8801117","-19.51419","2.1072998"
"1961003","1.8586884","-19.51419","-14.050659"
"1961023","2.1824188","-19.51419","3.3641357"
"1961044","1.6349335","-15.143829","-2.0845337"
"1961063","2.2633514","-11.423309","-0.23022461"
"1961083","0.84465027","-5.988922","6.568115"
"1961104","-4.4064484","-1.2138977","7.3155518"
"1961125","-8.872025","2.799408","8.791382"
"1961144","-10.619217","8.959808","11.374084"
"1961164","-7.553299","9.519196","8.97467"
"1961184","-1.6499786","5.5225525","-0.91815186"
"1961204","4.1033783","-1.0996399","-19.73677"
"1961224","6.255234","-10.387848","19.262634"
"1961244","-6.705887","-0.8497009","2.730957"
"1961264","-17.869827","-13.594208","11.871582"
"1961285","-1.1477203","-19.51419","-17.535522"
"1961304","6.1814423","-15.100983","-0.8729248"
"1961324","-0.8525543","-9.559479","0.8742676"
"1961344","0.08055115","-7.3052673","7.9225464"
"1961363","1.3064423","-9.378571","5.0184937"
"1961384","1.3778534","-17.055267","4.463867"
"1961404","2.7203827","-19.51419","1.2003784"
"1961423","-5.108658","-17.143341","1.7502441"
"1961444","-7.1962433","-15.898407","-1.303772"
"1961464","-0.6216583","-18.752472","-4.721985"
"1961484","5.038864","-18.35019","-4.486328"
"1961504","6.8693695","-10.261688","-7.756958"
"1961523","9.333054","-8.324066","-11.239441"
"1961544","12.38945","-4.660675","-8.271118"
"1961564","14.208054","-1.3257751","-2.5058594"
"1961585","6.212387","-0.057037354","-0.27069092"
"1961604","-3.3638458","-4.1369934","-1.6584473"
"1961624","-6.322647","-13.622772","0.18634033"
"1961644","-2.7378082","-19.51419","-2.612976"
"1961664","-8.655411","-15.97934","-0.7729492"
"1961685","-8.076981","-18.171661","-1.7798462"
"1961704","1.1755219","-19.51419","3.6331177"
"1961725","3.92247","-19.51419","3.0094604"
"1961744","-7.6532745","-19.51419","2.4905396"
"1961764","-5.591873","-11.347137","3.3641357"
"1961784","-0.85017395","-7.0743713","1.7859497"
"1961804","1.2540741","-9.837982","-2.1369019"
"1961825","2.2038422","-10.311676","-2.5177612"
"1961844","-1.8975372","-4.596405","3.0427856"
"1961864","-8.472122","0.04055786","7.541687"
"1961885","-7.2605133","5.8058167","9.653076"
"1961904","-1.0596466","2.4256897","4.680481"
"1961924","-0.24079895","-0.2593689","1.069458"
"1961945","-1.8618317","-4.8225403","-4.126892"
"1961964","1.8872528","-4.8820496","-13.912598"
"1961984","8.659409","-3.6871033","-4.1816406"
"1962005","3.4392548","-2.037506","11.812073"
"1962025","-11.042923","-13.068146","-14.740967"
"1962044","9.190231","-19.51419","19.262634"
"1962065","-0.51216125","-13.837006","3.5688477"
"1962085","-6.4011993","2.2781067","11.957275"
"1962104","-7.0319977","-1.5090637","1.7097778"
"1962124","-17.329483","-19.51419","6.40625"
"1962144","2.5085297","-19.51419","1.5550537"
"1962164","3.3416595","-14.758209","5.494568"
"1962184","2.068161","-12.6492","3.3736572"
"1962204","17.164474","-15.9841","-0.48016357"
"1962224","3.120285","-19.371368","-2.0083618"
"1962244","-1.6833038","-18.28592","-19.73677"
"1962264","0.17338562","-10.923431","-2.5249023"
"1962284","15.117355","-5.672333","-5.440857"
"1962304","14.446091","-0.97824097","-2.3273315"
"1962324","1.0541229","0.34048462","-5.9835815"
"1962344","-4.8372955","-0.04989624","-5.878845"
"1962364","-6.1060333","-2.620697","-1.2037964"
"1962384","-6.6582794","-5.5437927","-2.8010254"
"1962405","-4.385025","-8.626373","-0.4706421"
"1962425","-0.15034485","-19.180939","6.848999"
"1962444","12.027634","-19.51419","-1.5870361"
"1962465","11.063583","-18.654877","2.8666382"
"1962485","4.2700043","-19.51419","-2.1107178"
"1962505","-3.6494904","-19.51419","-3.4389648"
"1962524","0.06388855","-15.227142","-0.070739746"
"1962544","0.06626892","-11.628021","0.95043945"
"1962564","2.1157684","-10.354523","0.82666016"
"1962586","-1.0501251","-5.891327","1.576477"
"1962605","-6.996292","1.8972473","2.473877"
"1962624","-7.143875","6.0367126","4.0354004"
"1962644","-0.7549591","3.9277039","3.7497559"
"1962665","1.7372894","-0.6283264","1.7073975"
"1962684","0.58995056","-4.2607727","-2.1202393"
"1962705","8.809372","-10.118866","-17.14038"
"1962726","10.946945","-8.973907","-3.2437744"
"1962744","5.474472","0.090545654","17.584473"
"1962765","-14.320694","-9.328583","-19.73677"
"1962784","19.260986","-19.51419","19.262634"
"1962805","-8.624466","-9.854645","7.49646"
"1962824","-4.9539337","3.8158264","9.591187"
"1962844","-5.365738","-0.20700073","-0.444458"
"1962865","-19.738419","-19.51419","5.1898804"
"1962886","9.923386","-19.51419","-2.586792"
"1962905","4.2128754","-15.829376","2.7833252"
"1962926","9.597275","-10.428314","-0.023132324"
"1962945","12.13475","-9.433319","-4.267334"
"1962965","4.391403","-16.04837","-9.492249"
"1962986","-2.454544","-15.819855","-2.9557495"
"1963005","1.2516937","-10.502106","-8.568665"
"1963025","5.6006317","-6.8887024","-8.98761"
"1963045","11.199265","-2.1422424","-5.024292"
"1963064","7.621567","-1.9065857","-3.4199219"
"1963085","-1.8308868","-2.556427","-4.2649536"
"1963104","-1.4167023","-1.9541931","0.6409912"
"1963125","0.19242859","-4.256012","-3.105713"
"1963145","-1.6547394","-10.649689","6.258667"
"1963165","1.0422211","-16.821991","1.3860474"
"1963185","3.0131683","-19.51419","1.107544"
"1963205","8.721298","-19.51419","4.8756714"
"1963225","2.7822723","-19.51419","3.1380005"
"1963245","-8.015091","-17.3909","-0.7348633"
"1963264","-4.3802643","-7.3623962","4.5757446"
"1963285","2.5394745","-9.088165","3.58313"
"1963305","3.2535858","-15.831757","1.3265381"
"1963325","1.7944183","-12.832489","-0.9229126"
"1963345","1.0374603","-5.738983","-1.6751099"
"1963364","2.2443085","-0.41409302","-0.22070313"
"1963385","5.6244354","-0.04989624","2.3810425"
"1963405","5.2340546","-0.4402771","3.352234"
"1963426","2.651352","1.9519958","5.7873535"
"1963445","0.74705505","1.9638977","2.3477173"
"1963465","-1.5904694","2.7279968","0.16729736"
"1963485","-6.348831","1.3830872","-1.7322388"
"1963505","-2.5235748","-2.351715","-7.5236816"
"1963525","3.5082855","-15.957916","-14.821899"
"1963545","1.6611176","-19.51419","13.237915"
"1963565","-8.90535","-17.060028","10.357666"
"1963585","-2.7735138","-2.908722","11.378845"
"1963605","2.8036957","-17.928864","-5.993103"
"1963625","6.5051727","-19.51419","2.1620483"
"1963645","0.44950867","-19.51419","0.6171875"
"1963665","-8.929153","-13.334747","2.1096802"
"1963685","-9.602798","-14.972443","-5.678894"
"1963705","3.222641","-17.9122","-3.4413452"
"1963725","4.7841644","-16.583954","-3.5960693"
"1963745","3.4559174","-13.979828","-4.04834"
"1963765","4.134323","-9.371429","-1.0800171"
"1963785","7.692978","1.1974182","6.0825195"
"1963805","2.12529","5.4773254","6.7490234"
"1963825","0.25193787","6.4532776","9.864929"
"1963845","-1.7475739","2.6946716","9.193665"
"1963865","-5.4799957","-0.959198","1.024231"
"1963885","-1.8927765","-2.6706848","-1.4799194"
"1963905","-1.9427643","-6.4983215","-4.138794"
"1963925","-7.1533966","-11.651825","-9.139954"
"1963945","0.5185394","-4.120331","-8.649597"
"1963966","4.6056366","-10.802032","15.054138"
"1963985","10.118576","-16.695831","19.262634"
"1964005","4.2128754","-18.473969","13.176025"
"1964026","10.394699","-19.51419","4.3305664"
"1964045","6.23143","-19.51419","-9.473206"
"1964066","-0.60261536","-16.62918","0.1482544"
"1964085","0.34477234","-19.51419","9.250793"
"1964105","-5.5180817","-19.51419","-5.133789"
"1964126","-10.590652","-13.063385","-5.0076294"
"1964145","-5.31575","-8.397858","-0.53967285"
"1964166","0.701828","-11.182892","-0.6610718"
"1964185","3.4511566","-14.967682","-3.0200195"
"1964205","3.4416351","-13.318085","-1.118103"
"1964226","0.07102966","-6.976776","1.4336548"
"1964245","-1.023941","-0.79019165","4.366272"
"1964266","-2.204605","2.5280457","3.5997925"
"1964285","-3.416214","4.177643","1.9240112"
"1964305","-2.742569","4.03006","3.9782715"
"1964326","-2.4688263","5.025055","0.9313965"
"1964345","-3.9851227","4.070526","-2.6486816"
"1964366","-1.9760895","0.8356018","-7.571289"
"1964385","19.260986","-14.027435","19.262634"
"1964405","5.898178","-19.51419","-18.297241"
"1964426","-10.388321","-6.3816833","-0.9371948"
"1964445","-13.687515","4.09671","12.445251"
"1964466","-9.169571","-9.542816","0.25775146"
"1964487","6.0790863","-19.51419","10.726624"
"1964506","6.314743","-19.51419","3.397461"
"1964526","0.72325134","-14.76535","2.0430298"
"1964545","-1.7404327","-11.870819","0.4100952"
"1964565","4.493759","-14.939117","1.3741455"
"1964586","9.963852","-17.762238","-3.119995"
"1964606","3.1988373","-14.265472","-7.0476074"
"1964626","3.5606537","-11.194794","-10.46344"
"1964645","6.114792","-9.37619","-6.216858"
"1964665","7.885788","-6.5554504","-3.8721924"
"1964686","5.641098","-2.8872986","-4.793396"
"1964706","0.19718933","-3.0229797","-3.953125"
"1964726","-1.2476959","-1.9565735","-2.548706"
"1964745","-0.04322815","-3.8489685","0.90283203"
"1964766","-2.1474762","-10.375946","1.6550293"
"1964785","-2.8782501","-19.069061","-2.9985962"
"1964805","-3.3828888","-19.51419","4.918518"
"1964826","1.5254364","-18.921478","5.989685"
"1964846","-0.6407013","-19.51419","1.1956177"
"1964866","0.06388855","-19.51419","0.26489258"
"1964886","-0.6668854","-14.384491","-0.85388184"
"1964906","-0.46217346","-10.878204","-1.5703735"
"1964926","1.3254852","-9.483307","-1.9702759"
"1964946","2.2681122","-5.9151306","1.2289429"
"1964965","-1.0310822","-1.8804016","3.6712036"
"1964986","-5.3514557","1.985321","6.356262"
"1965006","-5.5823517","3.5468445","5.3255615"
"1965026","-3.5780792","0.51187134","2.4119873"
"1965045","-1.319107","-3.7989807","0.7838135"
"1965066","3.0274506","-6.410248","-5.607483"
"1965085","8.895065","-7.6837463","-10.972839"
"1965106","11.442062","-3.2633972","2.4691162"
"1965126","-4.358841","-6.924408","-1.8322144"
"1965146","-1.2595978","-19.51419","-9.497009"
"1965166","-2.4426422","-12.761078","-4.633911"
"1965186","-8.5768585","-3.8156433","14.982727"
"1965205","-6.239334","-7.3528748","2.7404785"
"1965226","-3.9756012","-18.304962","2.1572876"
"1965246","3.0655365","-19.51419","5.7111816"
"1965265","1.4064178","-15.665131","-1.0490723"
"1965286","-0.70973206","-12.215973","4.9518433"
"1965306","0.0043792725","-14.89151","-0.23736572"
"1965326","2.2371674","-15.612762","-3.1557007"
"1965346","4.5032806","-14.639191","-6.897644"
"1965366","6.5742035","-11.197174","-4.955261"
"1965386","5.1888275","-8.702545","-5.081421"
"1965407","6.250473","-6.591156","-6.3287354"
"1965426","8.968857","-4.3250427","-3.2842407"
"1965446","5.3744965","-2.223175","-5.209961"
"1965466","0.71372986","-1.3543396","-3.0390625"
"1965486","-0.37409973","-1.3543396","-0.69677734"
"1965506","1.3730927","-4.865387","3.3379517"
"1965526","2.6227875","-14.646332","-0.10406494"
"1965546","-0.8977814","-19.51419","3.1427612"
"1965566","0.099594116","-19.51419","0.24822998"
"1965586","3.0084076","-19.12619","-0.07312012"
"1965606","0.118637085","-19.51419","-1.3442383"
"1965626","-6.1893463","-14.072662","1.3265381"
"1965646","-5.8584747","-6.93631","5.8302"
"1965666","-4.4135895","-6.1888733","-0.049316406"
"1965687","-0.6811676","-8.188385","-3.9840698"
"1965706","0.9303436","-8.005096","-4.8814697"
"1965727","-3.6780548","-3.6490173","-0.5420532"
"1965746","-7.905594","1.3878479","5.418396"
"1965766","-2.2522125","0.6451721","3.6783447"
"1965786","4.853195","-2.723053","-1.5703735"
"1965807","7.6406097","-5.346222","-5.731262"
"1965826","8.407089","-4.9082336","-1.2323608"
"1965846","7.166916","-2.0446472","-0.43493652"
"1965867","3.658249","1.2759705","10.205322"
"1965886","-5.3443146","0.8022766","-19.73677"
"1965907","13.474899","-19.51419","19.262634"
"1965927","-3.3471832","-19.51419","-7.9021606"
"1965946","0.121017456","-1.2591248","8.931824"
"1965966","-3.082962","3.2278748","2.742859"
"1965986","-2.4259796","-1.966095","-2.8724365"
"1966007","-14.858658","-19.51419","-0.068359375"
"1966026","14.493698","-12.2326355","5.258911"
"1966046","-2.5592804","-9.050079","-2.1297607"
"1966067","-2.8663483","-9.535675","0.68621826"
"1966086","1.7301483","-14.76059","-4.343506"
"1966106","9.037888","-17.514679","-6.80719"
"1966127","6.1243134","-13.301422","-4.826721"
"1966146","3.229782","-7.2029114","-9.556519"
"1966166","6.724167","-2.0922546","-4.3411255"
"1966187","3.8486786","-0.4569397","-2.2702026"
"1966206","-4.7658844","-1.7590027","-2.5748901"
"1966226","-2.2498322","-1.6637878","3.0023193"
"1966246","6.6384735","-6.9339294","7.5631104"
"1966267","7.3311615","-19.51419","-1.1062012"
"1966287","3.8534393","-19.51419","-6.647705"
"1966307","-6.2988434","-13.539459","2.55719"
"1966327","-8.224564","-10.690155","4.494812"
"1966346","1.6849213","-14.879608","-2.7772217"
"1966366","7.3454437","-18.959564","0.50531006"
"1966387","4.608017","-16.331635","-3.4770508"
"1966406","-2.640213","-11.413788","-2.393982"
"1966426","-6.872513","-5.5866394","1.1194458"
"1966446","-10.776321","0.7475281","3.3260498"
"1966467","-9.864639","3.684906","4.630493"
"1966488","-5.846573","0.79751587","4.173462"
"1966507","-2.6497345","-1.1639099","3.4379272"
"1966527","-0.14796448","-3.960846","-0.6991577"
"1966546","4.762741","-8.300262","-10.113525"
"1966566","17.550095","-12.118378","-0.9229126"
"1966587","13.717697","-6.393585","9.200806"
"1966607","-1.5000153","-5.827057","-13.831665"
"1966626","19.260986","-19.51419","17.624939"
"1966646","-14.025528","-15.289032","-8.920959"
"1966667","-18.641068","10.171417","19.262634"
"1966688","-7.719925","2.209076","6.887085"
"1966707","-6.098892","-16.100739","-1.2371216"
"1966727","4.029587","-19.51419","-7.6260376"
"1966747","9.904343","-12.430206","1.2289429"
"1966766","-3.949417","-6.80777","-1.8988647"
"1966787","-5.070572","-7.5766296","1.1194458"
"1966808","1.7991791","-7.5504456","4.763794"
"1966827","11.844345","-12.620636","0.857605"
"1966847","12.489426","-19.51419","-9.668396"
"1966867","4.089096","-14.289276","-9.466064"
"1966887","-2.3117218","-10.761566","-5.300415"
"1966906","-3.628067","-5.8365784","-0.30163574"
"1966927","-0.11701965","-6.9720154","-3.9555054"
"1966947","-0.21461487","-11.530426","-7.6974487"
"1966966","-0.22651672","-14.484467","4.7733154"
"1966987","-4.963455","-8.628754","2.8023682"
"1967007","-4.3612213","-7.052948","7.253662"
"1967026","1.0565033","-11.794647","3.2332153"
"1967047","6.976486","-15.538971","-0.33496094"
"1967067","7.007431","-17.243317","-1.9678955"
"1967087","0.23051453","-6.007965","9.179382"
"1967107","-6.9201202","7.7981873","10.2196045"
"1967127","-5.096756","19.485214","7.68927"
"1967147","3.5225677","18.33847","0.09350586"
"1967167","1.8396454","0.9665222","-7.866455"
"1967186","-18.348282","-12.544464","0.4696045"
"1967206","8.278549","-19.51419","-4.671997"
"1967226","19.260986","-19.51419","-19.73677"
"1967249","19.260986","-14.50827","-5.505127"
"1967266","-0.12654114","-1.799469","-5.8169556"
"1967286","-17.94838","-4.729706","-9.811218"
"1967306","-17.367569","-5.224823","1.1289673"
"1967326","-9.145767","-10.675873","-3.8222046"
"1967346","-2.8592072","-11.073395","-4.3911133"
"1967366","1.125534","-9.533295","-2.1369019"
"1967386","7.8310394","-11.159088","-3.8817139"
"1967408","10.72319","-14.077423","-10.342041"
"1967427","19.260986","-19.51419","-15.362244"
"1967447","1.7753754","-19.302338","10.25769"
"1967467","-15.1324005","-2.9015808","-4.3339844"
"1967487","-17.995987","6.8507996","19.262634"
"1967507","-2.2974396","-4.5368958","-3.2723389"
"1967527","3.6701508","-19.161896","-2.6915283"
"1967547","11.575363","-19.51419","-2.3773193"
"1967567","2.8774872","-11.901764","2.4238892"
"1967587","-2.6902008","-5.765167","-6.819092"
"1967607","0.051986694","-7.5694885","-0.50634766"
"1967627","2.51091","-10.045074","0.041137695"
"1967647","1.8515472","-11.325714","-0.73010254"
"1967668","0.93510437","-11.773224","-3.9697876"
"1967688","3.9915009","-11.518524","-4.595825"
"1967708","3.7272797","-9.419037","-4.30542"
"1967728","1.3707123","-6.5173645","-4.1816406"
"1967747","1.2707367","-5.224823","-1.2823486"
"1967768","1.0731659","-5.422394","-3.298523"
"1967788","2.5537567","-6.8625183","-1.7893677"
"1967808","1.118393","-5.634247","-0.56585693"
"1967828","0.94462585","-5.470001","2.5429077"
"1967847","4.2009735","-9.195282","0.3529663"
"1967868","5.6244354","-10.706818","-1.7060547"
"1967888","3.165512","-9.114349","-3.3556519"
"1967908","-0.7882843","-6.93631","-2.3987427"
"1967928","-3.480484","-4.7868347","1.4431763"
"1967947","-0.24794006","-6.6649475","1.4979248"
"1967968","5.8434296","-11.1091","-0.5991821"
"1967988","7.7548676","-11.254303","0.15301514"
"1968007","1.7991791","-9.928436","-3.8174438"
"1968028","-5.270523","-6.443573","-0.5039673"
"1968047","-5.0943756","-8.407379","-7.70697"
"1968068","-0.1622467","-11.10434","-11.003784"
"1968088","4.9841156","-14.0607605","-5.2004395"
"1968108","3.010788","-15.0867","3.0332642"
"1968128","6.16716","-16.914825","8.305786"
"1968147","8.4665985","-15.4270935","2.7071533"
"1968168","2.0991058","-11.782745","-5.8859863"
"1968188","-1.6047516","-13.832245","-4.0126343"
"1968208","-6.194107","-17.664642","-2.3892212"
"1968228","-2.980606","-14.420197","0.038757324"
"1968247","-1.5119171","-11.337616","-2.1083374"
"1968268","0.43284607","-13.629913","-4.1292725"
"1968288","-0.8715973","-12.077911","-0.8324585"
"1968308","-1.6595001","-9.7951355","-2.1297607"
"1968328","-0.44789124","-8.750153","-2.363037"
"1968347","2.3109589","-9.328583","-2.0059814"
"1968368","1.7872772","-7.609955","-2.6724854"
"1968388","0.4542694","-6.2341003","-0.8729248"
"1968408","-1.4809723","-5.5104675","0.014953613"
"1968428","-2.8377838","-4.88443","-0.3635254"
"1968448","-3.0662994","-4.082245","-0.81817627"
"1968468","-2.0736847","-3.4205017","-0.2802124"
"1968488","-1.2310333","-3.377655","-0.092163086"
"1968508","-0.70973206","-3.551422","-0.2468872"
"1968528","-0.53596497","-3.7466125","-1.0776367"
"1968547","-0.72639465","-3.5776062","-0.8919678"
"1968568","-0.66212463","-3.8156433","-1.1062012"
"1968588","0.092453","-5.1058044","-1.9298096"
"1968608","1.4706879","-7.9551086","-4.2006836"
"1968628","2.7108612","-12.38974","-4.907654"
"1968648","1.3373871","-14.684418","-3.4389648"
"1968668","0.932724","-10.968658","-2.6224976"
"1968688","2.2514496","-7.674225","-0.25164795"
"1968708","0.60661316","-8.643036","-1.1276245"
"1968728","0.16386414","-11.701813","-4.631531"
"1968748","1.8087006","-15.098602","-6.6810303"
"1968768","-2.023697","-12.035065","-6.9714355"
"1968788","-2.1498566","-11.23526","-7.790283"
"1968808","1.670639","-9.766571","-6.3287354"
"1968828","8.702255","-9.447601","-1.0371704"
"1968848","6.133835","-11.17099","2.9666138"
"1968868","3.1821747","-19.51419","-11.627441"
"1968888","2.9036713","-19.51419","3.4069824"
"1968908","-12.623489","-2.4302673","0.8647461"
"1968928","-14.032669","-1.3710022","8.960388"
"1968948","0.8993988","-8.174103","3.5855103"
"1968968","3.7129974","-15.705597","-0.7848511"
"1968988","3.805832","-19.51419","-0.76342773"
"1969008","-1.5071564","-10.756805","-1.7298584"
"1969028","-3.2091217","-8.245514","0.14111328"
"1969048","-0.2288971","-8.309784","-1.9559937"
"1969068","1.8491669","-8.133636","-1.9869385"
"1969088","1.1612396","-8.80014","-0.027893066"
"1969108","-0.959671","-9.335724","-0.025512695"
"1969128","-0.35029602","-9.254791","-1.8393555"
"1969148","2.3585663","-9.202423","-2.1726074"
"1969169","2.7703705","-8.714447","-2.105957"
"1969189","1.920578","-8.773956","-0.7919922"
"1969209","1.4635468","-8.869171","-1.9107666"
"1969229","1.6158905","-9.104828","-1.0181274"
"1969248","3.2583466","-9.664215","-0.8895874"
"1969269","3.0726776","-8.869171","-2.4439697"
"1969289","2.0634003","-9.559479","-5.0004883"
"1969309","3.3797455","-11.842255","-4.7077026"
"1969329","3.72966","-15.353302","-4.1792603"
"1969348","-0.014663696","-17.019562","-8.256836"
"1969369","-2.6711578","-15.567535","-3.4794312"
"1969389","-7.6651764","-12.77298","2.6071777"
"1969409","-5.860855","-10.218842","5.3446045"
"1969429","-2.0141754","-10.028412","2.4857788"
"1969448","2.0276947","-11.373322","-2.1035767"
"1969469","1.5897064","-11.727997","-2.8010254"
"1969489","-0.36695862","-9.547577","-0.8634033"
"1969509","-1.6809235","-7.6575623","1.050415"
"1969529","-0.7311554","-6.5625916","-0.08502197"
"1969548","0.04246521","-6.4221497","-1.1323853"
"1969569","-0.6716461","-5.1319885","-0.42303467"
"1969589","-2.242691","-3.8870544","-0.13739014"
"1969609","-2.602127","-4.353607","-1.8084106"
"1969629","-2.68544","-5.5223694","-3.2747192"
"1969648","-2.371231","-6.053192","-3.5127563"
"1969669","-1.5452423","-7.019623","-3.1914063"
"1969689","-0.11463928","-7.983673","-2.3796997"
"1969709","1.9181976","-9.569","-1.4680176"
"1969729","3.6225433","-9.959381","-2.3511353"
"1969748","3.9653168","-8.595428","-3.8079224"
"1969769","3.222641","-8.459747","-3.8936157"
"1969789","2.3490448","-8.79776","-2.8343506"
"1969809","0.868454","-9.764191","-2.4725342"
"1969829","-0.14082336","-9.799896","-3.9674072"
"1969849","-1.3952789","-8.497833","-4.126892"
"1969869","-1.6428375","-7.631378","-3.6365356"
"1969889","-0.6716461","-7.3504944","-2.0750122"
"1969909","-0.94776917","-10.6996765","-3.3675537"
"1969929","-0.6073761","-13.9774475","-3.2818604"
"1969949","-1.20961","-18.259735","-0.023132324"
"1969969","-0.37171936","-13.891754","-2.624878"
"1969989","-2.6759186","-9.623749","-1.4299316"
"1970009","-1.8047028","-10.076019","0.16015625"
"1970029","-0.20271301","-11.035309","1.6526489"
"1970049","-0.19795227","-12.77298","2.2334595"
"1970069","-0.6407013","-11.254303","1.5003052"
"1970089","-0.76686096","-8.404999","1.5479126"
"1970109","-0.95729065","-7.96463","0.9456787"
"1970128","0.09007263","-9.05246","-0.25164795"
"1970149","-0.6216583","-13.03006","-1.3775635"
"1970169","-0.99775696","-12.734894","0.50531006"
"1970188","-2.806839","-9.547577","1.300354"
"1970209","-2.6735382","-8.738251","1.2622681"
"1970229","-0.74305725","-8.357391","0.86950684"
"1970249","0.13768005","-9.597565","-0.7896118"
"1970269","0.6208954","-10.692535","-1.2180786"
"1970289","1.2873993","-9.423798","0.10064697"
"1970308","0.7946625","-8.566864","0.5338745"
"1970329","0.868454","-8.321686","-0.15405273"
"1970349","0.24717712","-9.411896","0.33868408"
"1970368","-1.6023712","-11.725616","0.70526123"
"1970389","-1.2238922","-10.9758","-0.3040161"
"1970409","-0.3431549","-9.523773","-0.9086304"
"1970429","0.5375824","-9.476166","-0.62298584"
"1970449","0.9089203","-9.307159","-0.5015869"
"1970469","0.5685272","-9.395233","0.36724854"
"1970489","0.1662445","-9.623749","1.2027588"
"1970509","-0.39790344","-9.449982","0.9123535"
"1970529","-0.7406769","-9.642792","-0.3706665"
"1970549","-0.6740265","-9.519012","-1.5299072"
"1970569","-0.09559631","-8.973907","-2.18927"
"1970589","0.5185394","-8.847748","-1.6917725"
"1970610","0.91130066","-8.166962","-0.59680176"
"1970629","1.5706635","-8.319305","0.23394775"
"1970649","2.1990814","-8.22171","-0.27783203"
"1970669","0.40428162","-6.912506","0.6838379"
"1970690","-3.7018585","-6.912506","-3.6698608"
"1970709","-1.8523102","-12.19693","1.6288452"
"1970729","2.5727997","-13.494232","1.005188"
"1970749","3.203598","-8.3454895","-1.8393555"
"1970769","-1.440506","-7.4933167","-4.2387695"
"1970789","-3.0877228","-6.803009","0.37438965"
"1970810","-1.7261505","-10.099823","4.3305664"
"1970830","3.5725555","-11.632782","-0.6586914"
"1970849","5.653","-10.533051","-2.2440186"
"1970870","0.554245","-9.95224","-3.15094"
"1970889","-1.8880157","-8.676361","0.67907715"
"1970909","-1.33815","-8.224091","2.871399"
"1970930","2.851303","-9.542816","-2.5130005"
"1970949","5.288803","-11.868439","-2.4177856"
"1970969","1.8063202","-11.906525","-4.721985"
"1970990","-0.036087036","-9.126251","-1.4799194"
"1971010","-0.24555969","-6.538788","-1.7584229"
"1971029","1.2778778","-6.988678","-3.222351"
"1971049","1.8158417","-9.330963","-0.87054443"
"1971069","2.0395966","-10.123627","0.038757324"
"1971091","2.927475","-10.630646","-0.26831055"
"1971110","3.0726776","-12.039825","-2.6272583"
"1971130","2.7299042","-13.068146","-4.0388184"
"1971149","2.196701","-14.484467","-7.1452026"
"1971170","1.477829","-15.696075","-5.916931"
"1971189","-0.5669098","-15.267609","-3.453247"
"1971209","-2.8996735","-11.166229","-2.2106934"
"1971230","-1.9903717","-8.407379","-0.694397"
"1971249","-0.7644806","-7.219574","-0.8062744"
"1971270","0.46141052","-7.912262","-1.6465454"
"1971290","0.554245","-8.823944","-1.9845581"
"1971309","-0.026565552","-8.721588","-2.291626"
"1971329","-0.3526764","-8.228851","-2.6010742"
"1971349","-0.7621002","-8.152679","-2.7248535"
"1971371","-0.959671","-8.188385","-2.881958"
"1971390","-0.9549103","-8.593048","-3.139038"
"1971410","-1.3286285","-8.297882","-2.8486328"
"1971429","-1.228653","-7.776581","-2.7200928"
"1971450","-0.9453888","-7.6599426","-2.8581543"
"1971470","-0.46931458","-7.905121","-3.4389648"
"1971490","0.06864929","-8.352631","-3.7722168"
"1971510","0.3138275","-8.264557","-3.5437012"
"1971530","0.3138275","-7.8836975","-3.0128784"
"1971550","0.12815857","-7.669464","-2.8510132"
"1971569","-0.12416077","-7.9527283","-3.067627"
"1971590","-0.34077454","-8.528778","-3.1652222"
"1971610","-0.20747375","-8.802521","-2.9129028"
"1971629","0.28050232","-8.916779","-3.2461548"
"1971649","0.96842957","-9.040558","-2.8153076"
"1971669","0.5280609","-9.223846","-2.0107422"
"1971691","0.0067596436","-8.650177","-2.1535645"
"1971710","-0.41218567","-9.285736","-2.0297852"
"1971731","0.637558","-9.578522","-1.5394287"
"1971750","0.6446991","-10.299774","-2.4415894"
"1971770","1.4159393","-11.001984","-3.9031372"
"1971791","2.439499","-11.011505","-5.3813477"
"1971810","1.0065155","-11.775604","-4.843384"
"1971830","-1.0025177","-12.189789","-2.6415405"
"1971850","-2.114151","-12.363556","-1.534668"
"1971869","-1.107254","-9.940338","-1.6156006"
"1971890","-0.25984192","-10.097443","-2.0535889"
"1971910","-0.70259094","-10.394989","-2.624878"
"1971930","-1.20961","-9.295258","-0.2897339"
"1971950","-1.0905914","-8.393097","1.4193726"
"1971970","-0.5145416","-8.921539","0.67907715"
"1971990","-0.6811676","-9.807037","0.44104004"
"1972010","-1.7737579","-9.809418","0.27441406"
"1972030","-2.5616608","-9.609467","-0.25878906"
"1972050","-2.0594025","-9.523773","-0.4206543"
"1972070","-0.9025421","-9.69278","-0.18737793"
"1972090","-0.5764313","-9.714203","-0.13739014"
"1972110","-1.126297","-9.63089","-0.07788086"
"1972130","-1.5833282","-9.652313","0.13873291"
"1972150","-1.6785431","-9.580902","-0.21118164"
"1972170","-1.0501251","-9.640411","0.5338745"
"1972190","-0.9430084","-9.959381","0.36724854"
"1972209","-1.1191559","-9.923676","0.67193604"
"1972230","-0.9358673","-9.704681","1.1242065"
"1972250","-0.5740509","-9.773712","0.9147339"
"1972270","-0.5573883","-9.807037","1.319397"
"1972290","-1.1477203","-9.592804","0.7504883"
"1972310","-1.5142975","-9.709442","0.7171631"
"1972330","-1.0501251","-9.642792","0.78619385"
"1972350","-0.8192291","-9.495209","0.8457031"
"1972370","-0.57167053","-9.661835","0.7671509"
"1972392","-0.6811676","-9.835602","0.5505371"
"1972411","-0.56929016","-9.69754","0.3862915"
"1972431","-0.46217346","-9.783234","0.20776367"
"1972450","-0.581192","-9.930817","0.26489258"
"1972470","-0.3598175","-9.733246","0.23394775"
"1972491","-0.37171936","-9.659454","0.3791504"
"1972511","-0.64546204","-9.685638","0.12921143"
"1972531","-0.7954254","-9.75943","-0.12072754"
"1972550","-0.93110657","-9.75705","0.07208252"
"1972571","-0.9287262","-9.7308655","0.4029541"
"1972591","-0.9120636","-9.718964","0.24346924"
"1972611","-0.95729065","-9.666595","0.4362793"
"1972631","-0.895401","-9.664215","0.524353"
"1972650","-0.66926575","-9.733246","0.55529785"
"1972671","-0.581192","-9.721344","0.6171875"
"1972691","-0.70973206","-9.809418","0.77667236"
"1972711","-0.67878723","-9.661835","0.8171387"
"1972731","-0.5978546","-9.621368","0.9147339"
"1972750","-0.7549591","-9.7118225","1.0075684"
"1972771","-1.4071808","-9.7308655","0.6243286"
"1972791","-1.5952301","-9.447601","0.77667236"
"1972811","-1.5571442","-9.561859","0.63861084"
"1972831","-1.1429596","-9.7118225","0.71240234"
"1972850","-0.99061584","-9.602325","0.6600342"
"1972871","-1.1572418","-9.616608","0.4362793"
"1972891","-1.1215363","-9.790375","0.57196045"
"1972911","-1.3167267","-9.626129","0.29821777"
"1972931","-1.2429352","-9.4999695","0.29345703"
"1972951","-1.0215607","-9.561859","0.33868408"
"1972971","-1.0644073","-9.678497","0.37438965"
"1972991","-1.1286774","-9.668976","0.46722412"
"1973011","-0.9691925","-9.618988","0.40771484"
"1973031","-0.7573395","-9.6285095","0.43865967"
"1973051","-0.87635803","-9.638031","0.5100708"
"1973071","-0.77638245","-9.721344","0.5172119"
"1973091","-0.8620758","-9.7308655","0.32202148"
"1973111","-0.8525543","-9.704681","0.32678223"
"1973131","-0.8287506","-9.595184","0.3791504"
"1973151","-0.75257874","-9.707062","0.28155518"
"1973171","-0.8882599","-9.680878","0.32678223"
"1973191","-0.7621002","-9.583282","0.36486816"
"1973211","-0.70973206","-9.671356","0.27679443"
"1973231","-0.8025665","-9.787994","0.045898438"
"1973251","-0.8192291","-9.840363","-0.32543945"
"1973271","-0.56929016","-9.738007","-0.53967285"
"1973291","-0.3931427","-9.75705","-0.75390625"
"1973311","-0.7216339","-9.940338","-1.2966309"
"1973331","-1.042984","-9.88797","-1.6727295"
"1973351","-1.2238922","-9.6475525","-1.4442139"
"1973371","-1.4000397","-9.611847","-1.0966797"
"1973391","-1.6547394","-9.764191","-0.63964844"
"1973411","-1.9641876","-9.845123","-0.5944214"
"1973431","-1.5547638","-10.197418","-0.675354"
"1973451","-1.1024933","-9.861786","0.395813"
"1973471","-1.7261505","-9.100067","0.70526123"
"1973491","-1.7928009","-8.883453","0.6481323"
"1973511","-2.0260773","-9.109589","-0.758667"
"1973531","-1.5452423","-9.276215","-0.97052"
"1973551","-0.95729065","-9.385712","-0.9657593"
"1973571","-0.7311554","-9.128632","-1.2133179"
"1973591","-1.0263214","-9.402374","-1.5822754"
"1973611","-1.7499542","-9.554718","-1.7369995"
"1973631","-1.9618073","-9.242889","0.036376953"
"1973651","-1.8570709","-9.004852","0.85998535"
"1973671","-1.3429108","-9.535675","0.44580078"
"1973691","-0.99775696","-10.6354065","-1.348999"
"1973711","0.1424408","-10.959137","-2.1083374"
"1973731","0.4471283","-10.192657","-1.8012695"
"1973751","-0.42884827","-9.335724","-0.3206787"
"1973772","-1.5523834","-9.161957","0.12445068"
"1973792","-1.8737335","-9.283356","0.022094727"
"1973812","-1.319107","-9.638031","-0.10882568"
"1973832","-0.8787384","-9.833221","0.06732178"
"1973851","-1.3738556","-9.845123","0.32202148"
"1973872","-1.9879913","-9.495209","0.055419922"
"1973892","-1.3357697","-9.359528","-0.17785645"
"1973912","-0.90730286","-9.811798","0.05065918"
"1973932","-1.0977325","-9.680878","0.036376953"
"1973951","-1.1691437","-9.602325","0.33392334"
"1973972","-1.2238922","-9.726105","0.6314697"
"1973992","-1.3310089","-9.569","0.59576416"
"1974012","-1.5666656","-9.576141","0.32440186"
"1974032","-1.6856842","-9.773712","0.42199707"
"1974051","-1.6642609","-9.569","0.42199707"
"1974072","-1.376236","-9.607086","0.5505371"
"1974092","-1.0096588","-9.778473","0.57196045"
"1974112","-0.9525299","-9.76181","0.5910034"
"1974132","-0.97395325","-9.678497","0.65289307"
"1974151","-1.1334381","-9.649933","0.6600342"
"1974172","-1.5142975","-9.578522","0.7171631"
"1974192","-1.3881378","-9.454742","0.49816895"
"1974212","-0.9858551","-9.554718","0.4196167"
"1974232","-1.1024933","-9.82608","0.3862915"
"1974252","-1.2786407","-9.69278","0.6433716"
"1974272","-1.4309845","-9.590424","0.6600342"
"1974292","-1.376236","-9.514252","0.56243896"
"1974312","-1.2595978","-9.545197","0.77667236"
"1974332","-1.7285309","-9.602325","0.83618164"
"1974352","-1.7618561","-9.597565","0.857605"
"1974372","-1.5833282","-9.569","0.85998535"
"1974392","-1.5166779","-9.466644","0.9290161"
"1974412","-1.5261993","-9.666595","0.8742676"
"1974432","-1.4381256","-9.673737","0.62194824"
"1974452","-1.2881622","-9.595184","0.6171875"
"1974472","-1.2881622","-9.645172","0.6005249"
"1974492","-1.588089","-9.69516","0.5910034"
"1974512","-1.6499786","-9.516632","0.607666"
"1974532","-1.6380768","-9.56662","0.50531006"
"1974552","-1.6118927","-9.542816","0.59814453"
"1974572","-1.5952301","-9.604706","0.5338745"
"1974592","-1.5785675","-9.578522","0.5529175"
"1974612","-1.697586","-9.592804","0.55529785"
"1974632","-1.6285553","-9.490448","0.45532227"
"1974652","-1.4952545","-9.592804","0.460083"
"1974672","-1.3262482","-9.785614","0.543396"
"1974692","-1.3452911","-9.671356","0.48150635"
"1974712","-1.4428864","-9.469025","0.4100952"
"1974732","-1.40242","-9.542816","0.40771484"
"1974752","-1.421463","-9.616608","0.42199707"
"1974772","-1.3786163","-9.709442","0.44580078"
"1974792","-1.2643585","-9.75705","0.3363037"
"1974812","-1.1239166","-9.573761","0.3529663"
"1974832","-1.1858063","-9.466644","0.5100708"
"1974852","-1.4762115","-9.623749","0.26727295"
"1974872","-1.40242","-9.726105","0.51483154"
"1974892","-1.3833771","-9.773712","0.48388672"
"1974912","-1.3429108","-9.509491","0.65527344"
"1974932","-1.459549","-9.507111","0.6148071"
"1974952","-1.4333649","-9.488068","0.49578857"
"1974972","-1.5095367","-9.778473","0.33868408"
"1974992","-1.5785675","-9.747528","0.2625122"
"1975012","-1.5619049","-9.583282","0.2553711"
"1975033","-1.5761871","-9.428558","0.35534668"
"1975052","-1.5095367","-9.5642395","0.35534668"
"1975072","-1.588089","-9.661835","0.33154297"
"1975092","-1.799942","-9.666595","0.28631592"
"1975112","-1.8213654","-9.552338","0.4029541"
"1975133","-1.7523346","-9.540436","0.5100708"
"1975152","-1.6285553","-9.547577","0.54815674"
"1975172","-1.5476227","-9.561859","0.56481934"
"1975193","-1.5381012","-9.673737","0.44818115"
"1975212","-1.4738312","-9.645172","0.40057373"
"1975233","-1.4452667","-9.559479","0.45056152"
"1975252","-1.3310089","-9.595184","0.4862671"
"1975272","-1.2215118","-9.588043","0.46246338"
"1975292","-1.2072296","-9.611847","0.43151855"
"1975312","-1.1858063","-9.659454","0.40057373"
"1975332","-1.2453156","-9.657074","0.30059814"
"1975352","-1.1739044","-9.576141","0.24822998"
"1975372","-1.3024445","-9.659454","0.2720337"
"1975392","-1.40242","-9.602325","0.21966553"
"1975412","-1.5309601","-9.607086","0.2720337"
"1975432","-1.5952301","-9.578522","0.23156738"
"1975452","-1.6356964","-9.599945","0.24822998"
"1975472","-1.5309601","-9.599945","0.25775146"
"1975492","-1.5833282","-9.661835","0.37438965"
"1975512","-1.5119171","-9.585663","0.36010742"
"1975532","-1.550003","-9.580902","0.43151855"
"1975552","-1.6237946","-9.528534","0.38153076"
"1975572","-1.485733","-9.583282","0.34106445"
"1975592","-1.2905426","-9.690399","0.23156738"
"1975612","-1.2881622","-9.659454","0.13397217"
"1975632","-1.2857819","-9.592804","0.19110107"
"1975652","-1.3310089","-9.623749","0.24584961"
"1975672","-1.4881134","-9.657074","0.24822998"
"1975692","-1.4690704","-9.614227","0.21014404"
"1975712","-1.3619537","-9.554718","0.2886963"
"1975732","-1.3452911","-9.4809265","0.2886963"
"1975752","-1.2953033","-9.645172","0.3125"
"1975772","-1.3024445","-9.709442","0.3363037"
"1975792","-1.2024689","-9.607086","0.47198486"
"1975812","-1.27388","-9.5642395","0.4934082"
"1975832","-1.4190826","-9.657074","0.45056152"
"1975852","-1.3952789","-9.590424","0.26013184"
"1975872","-1.228653","-9.6285095","0.29821777"
"1975892","-1.2072296","-9.726105","0.36010742"
"1975912","-1.2857819","-9.623749","0.5505371"
"1975932","-1.3643341","-9.533295","0.5410156"
"1975953","-1.6023712","-9.621368","0.44818115"
"1975973","-1.5785675","-9.588043","0.35772705"
"1975993","-1.4762115","-9.599945","0.31726074"
"1976013","-1.4095612","-9.576141","0.40771484"
"1976033","-1.4238434","-9.590424","0.4767456"
"1976053","-1.6833038","-9.614227","0.4767456"
"1976073","-1.7832794","-9.659454","0.6100464"
"1976093","-1.6690216","-9.561859","0.6409912"
"1976113","-1.5809479","-9.523773","0.49816895"
"1976133","-1.7737579","-9.661835","0.46484375"
"1976153","-1.8404083","-9.576141","0.57196045"
"1976173","-1.7856598","-9.554718","0.5910034"
"1976193","-1.690445","-9.50473","0.5671997"
"1976213","-1.5785675","-9.652313","0.55529785"
"1976233","-1.4619293","-9.590424","0.5529175"
"1976253","-1.3310089","-9.609467","0.50531006"
"1976273","-1.3048248","-9.638031","0.4862671"
"1976293","-1.4071808","-9.652313","0.5838623"
"1976313","-1.4738312","-9.792755","0.68859863"
"1976333","-1.6095123","-9.402374","0.62194824"
"1976353","-1.4452667","-9.507111","0.6005249"
"1976373","-1.3095856","-9.671356","0.7385864"
"1976393","-1.2024689","-9.547577","0.65289307"
"1976413","-1.0167999","-9.540436","0.6933594"
"1976433","-1.1215363","-9.76181","0.6671753"
"1976453","-1.1834259","-9.807037","0.58148193"
"1976473","-1.3857574","-9.69516","0.46246338"
"1976493","-1.2714996","-9.519012","0.6409912"
"1976513","-1.3310089","-9.528534","0.755249"
"1976533","-1.4167023","-9.435699","0.8052368"
"1976553","-1.2786407","-9.649933","0.76239014"
"1976573","-1.254837","-9.666595","0.77667236"
"1976593","-1.319107","-9.509491","0.6743164"
"1976613","-1.3405304","-9.559479","0.6100464"
"1976633","-1.2453156","-9.766571","0.5862427"
"1976653","-1.1501007","-9.75705","0.76000977"
"1976673","-1.1405792","-9.464264","0.90045166"
"1976693","-1.1239166","-9.409515","0.63623047"
"1976713","-1.0953522","-9.776093","0.63623047"
"1976733","-1.1953278","-9.75705","0.6981201"
"1976753","-1.1001129","-9.514252","0.83618164"
"1976773","-1.0167999","-9.569","1.0456543"
"1976793","-1.2524567","-9.526154","0.9718628"
"1976813","-1.3881378","-9.37619","0.77667236"
"1976834","-1.0977325","-9.621368","0.74572754"
"1976854","-1.0572662","-9.854645","0.82666016"
"1976874","-1.0953522","-9.752289","1.217041"
"1976894","-1.3262482","-9.635651","1.2646484"
"1976914","-1.4666901","-9.573761","1.0075684"
"1976934","-1.5095367","-9.726105","0.7481079"
"1976954","-1.2714996","-9.75943","0.77905273"
"1976974","-1.0667877","-9.649933","0.774292"
"1976994","-1.1405792","-9.6475525","0.77905273"
"1977014","-1.1834259","-9.507111","0.56243896"
"1977034","-1.0739288","-9.621368","0.47198486"
"1977054","-1.0334625","-9.640411","0.49578857"
"1977075","-1.0215607","-9.592804","0.4029541"
"1977095","-0.96443176","-9.6285095","0.38391113"
"1977115","-1.0382233","-9.668976","0.4124756"
"1977135","-1.0001373","-9.580902","0.524353"
"1977154","-0.9620514","-9.642792","0.6838379"
"1977174","-1.0739288","-9.676117","0.6647949"
"1977194","-1.2810211","-9.638031","0.6647949"
"1977214","-1.3928986","-9.569","0.7076416"
"1977234","-1.3048248","-9.535675","0.6600342"
"1977254","-1.2524567","-9.671356","0.7671509"
"1977274","-1.1001129","-9.690399","0.774292"
"1977294","-1.2119904","-9.597565","0.77905273"
"1977314","-1.3095856","-9.573761","0.7243042"
"1977334","-1.3024445","-9.63327","0.7504883"
"1977354","-1.3000641","-9.621368","0.6576538"
"1977374","-1.3214874","-9.573761","0.5910034"
"1977394","-1.2619781","-9.585663","0.6338501"
"1977414","-1.2691193","-9.6285095","0.71954346"
"1977434","-1.2619781","-9.702301","0.5671997"
"1977455","-1.1977081","-9.626129","0.5076904"
"1977475","-1.2476959","-9.63089","0.5195923"
"1977495","-1.2357941","-9.638031","0.52911377"
"1977516","-1.2167511","-9.609467","0.68859863"
"1977535","-1.2500763","-9.583282","0.62908936"
"1977555","-1.2334137","-9.602325","0.5767212"
"1977574","-1.2429352","-9.673737","0.543396"
"1977595","-1.2667389","-9.626129","0.58862305"
"1977615","-1.2619781","-9.521393","0.5576782"
"1977635","-1.3143463","-9.585663","0.6100464"
"1977655","-1.3333893","-9.638031","0.524353"
"1977674","-1.190567","-9.635651","0.53149414"
"1977695","-1.1881866","-9.616608","0.67193604"
"1977715","-1.4833527","-9.509491","0.6933594"
"1977734","-1.4524078","-9.533295","0.6338501"
"1977754","-1.3333893","-9.576141","0.5862427"
"1977774","-1.2572174","-9.673737","0.4529419"
"1977795","-1.2357941","-9.69278","0.6100464"
"1977815","-1.2857819","-9.614227","0.607666"
"1977835","-1.2572174","-9.535675","0.54815674"
"1977855","-1.3095856","-9.571381","0.6005249"
"1977875","-1.3738556","-9.614227","0.58862305"
"1977895","-1.3048248","-9.6285095","0.54815674"
"1977915","-1.1215363","-9.616608","0.63623047"
"1977935","-1.1310577","-9.607086","0.6338501"
"1977955","-1.2215118","-9.523773","0.6481323"
"1977975","-1.3548126","-9.623749","0.62908936"
"1977995","-1.4333649","-9.671356","0.6148071"
"1978015","-1.4000397","-9.673737","0.58862305"
"1978036","-1.376236","-9.626129","0.7671509"
"1978055","-1.5333405","-9.557098","0.62194824"
"1978075","-1.4881134","-9.523773","0.61242676"
"1978095","-1.440506","-9.590424","0.6766968"
"1978115","-1.4048004","-9.588043","0.66955566"
"1978136","-1.5000153","-9.618988","0.79571533"
"1978155","-1.5381012","-9.507111","0.83380127"
"1978176","-1.4833527","-9.473785","0.68621826"
"1978196","-1.4286041","-9.526154","0.607666"
"1978215","-1.4881134","-9.704681","0.6005249"
"1978236","-1.5976105","-9.688019","0.6481323"
"1978255","-1.4738312","-9.445221","0.755249"
"1978275","-1.3548126","-9.369049","0.4529419"
"1978296","-1.1215363","-9.540436","0.4767456"
"1978315","-1.357193","-9.828461","0.80999756"
"1978336","-1.5404816","-9.542816","0.5410156"
"1978355","-1.190567","-9.280975","0.49816895"
"1978375","-1.3809967","-9.671356","0.70288086"
"1978396","-2.2069855","-9.790375","0.32440186"
"1978415","-1.3167267","-9.678497","0.7814331"
"1978435","-0.49549866","-9.980804","1.2289429"
"1978455","-1.0191803","-9.849884","1.4217529"
"1978475","-1.7594757","-9.552338","1.3217773"
"1978496","-1.9975128","-9.423798","2.0097046"
"1978517","-1.1286774","-9.100067","1.486023"
"1978536","-0.6906891","-9.88559","1.2932129"
"1978555","-0.8882599","-9.902252","0.9885254"
"1978576","-0.683548","-9.614227","0.7504883"
"1978595","-0.8358917","-9.94986","0.62908936"
"1978615","-0.85731506","-9.814178","0.85998535"
"1978636","-1.0001373","-9.588043","1.2932129"
"1978656","-1.3524323","-9.902252","1.3312988"
"1978676","-1.2905426","-10.042694","0.5600586"
"1978695","-1.0215607","-10.102203","-0.5777588"
"1978715","-0.38838196","-10.175995","-1.0776367"
"1978736","0.31144714","-10.042694","-1.432312"
"1978756","0.79704285","-9.735626","-1.5299072"
"1978775","-0.0027618408","-9.011993","-1.1990356"
"1978797","-0.7882843","-9.307159","-1.682251"
"1978816","-0.9620514","-10.190277","-0.96813965"
"1978836","-1.9832306","-11.442352","0.20300293"
"1978856","-3.075821","-11.10672","0.29345703"
"1978875","-3.7994537","-9.63089","-0.36828613"
"1978896","-3.044876","-9.104828","-0.75390625"
"1978916","-1.9689484","-9.000092","-1.6774902"
"1978935","-2.2902985","-9.152435","-2.234497"
"1978956","-1.9618073","-9.069122","-1.8726807"
"1978976","-0.7240143","-9.549957","-0.48254395"
"1978996","0.2662201","-9.63327","-0.39923096"
"1979015","1.1898041","-9.728485","-0.92529297"
"1979036","2.3704681","-9.907013","-1.9107666"
"1979056","0.8327484","-8.700165","-1.8464966"
"1979076","-0.41932678","-8.8715515","-2.6367798"
"1979096","0.42808533","-9.271454","-2.920044"
"1979116","-1.2619781","-9.028656","-3.2913818"
"1979136","-2.2522125","-9.535675","-3.9888306"
"1979156","-1.5214386","-9.533295","-3.805542"
"1979176","-1.1143951","-9.657074","-3.7341309"
"1979196","-0.038467407","-9.476166","-3.0509644"
"1979217","0.4804535","-9.319061","-3.2937622"
"1979236","0.7422943","-8.957245","-4.010254"
"1979256","0.80656433","-8.143158","-4.145935"
"1979276","1.1588593","-7.8003845","-3.2294922"
"1979296","1.2445526","-7.7670593","-3.1914063"
"1979316","1.0255585","-8.024139","-3.4318237"
"1979336","1.6230316","-8.078888","-4.460144"
"1979356","2.7322845","-8.452606","-3.529419"
"1979377","1.4802094","-7.843231","-3.677002"
"1979396","0.3138275","-7.950348","-5.095703"
"1979416","0.7613373","-7.855133","-4.657715"
"1979437","1.8444061","-8.009857","-1.701294"
"1979456","1.5397186","-5.917511","0.6005249"
"1979477","-5.7751617","-8.395477","-0.25402832"
"1979497","-7.8913116","-19.51419","-7.795044"
"1979516","2.3918915","-14.296417","-3.696045"
"1979536","1.4921112","-8.947723","-0.78723145"
"1979556","0.20671082","-7.06485","0.6600342"
"1979577","1.2326508","-7.1791077","0.70526123"
"1979596","3.4511566","-10.4045105","0.31726074"
"1979617","2.2062225","-12.249298","-1.4608765"
"1979637","-0.664505","-10.990082","-1.2085571"
"1979656","-2.1498566","-9.937958","-0.7729492"
"1979676","-1.754715","-9.326202","-0.13739014"
"1979697","-0.8073273","-8.588287","0.038757324"
"1979717","-0.5835724","-9.216705","-0.8157959"
"1979737","0.41618347","-9.899872","-1.3132935"
"1979756","0.68992615","-10.190277","-0.28259277"
"1979776","0.6851654","-9.7951355","-0.03741455"
"1979796","1.8967743","-9.509491","-2.3392334"
"1979817","2.6180267","-10.085541","-2.522522"
"1979837","2.241928","-8.881073","-0.2230835"
"1979856","0.23051453","-7.571869","-0.64678955"
"1979877","-0.36695862","-5.3176575","-0.7681885"
"1979897","-2.0141754","-4.3797913","-0.5349121"
"1979917","-3.332901","-9.059601","1.3955688"
"1979937","-9.224319","-17.914581","-4.11261"
"1979957","-0.7406769","-9.423798","4.4400635"
"1979976","3.510666","-7.7622986","2.871399"
"1979997","3.370224","-8.785858","-2.31781"
"1980017","-0.8192291","-9.569","-1.7869873"
"1980036","-3.6970978","-12.182648","2.0882568"
"1980057","-3.1448517","-10.768707","-0.3302002"
"1980078","-0.37886047","-9.554718","-0.05407715"
"1980097","0.16862488","-8.557343","0.43151855"
"1980117","-0.15034485","-9.297638","-0.4373169"
"1980137","-0.5002594","-10.168854","-1.5846558"
"1980157","2.5347137","-9.833221","-1.9797974"
"1980177","3.805832","-8.235992","-1.829834"
"1980197","1.5920868","-7.086273","-1.5751343"
"1980217","-0.581192","-7.019623","-1.2823486"
"1980236","-0.27650452","-8.385956","-1.3251953"
"1980257","0.66612244","-8.012238","-1.5322876"
"1980277","0.89701843","-7.1338806","-1.9107666"
"1980297","1.3540497","-6.5697327","-0.9133911"
"1980317","1.9634247","-8.243134","-1.7869873"
"1980337","1.6730194","-12.563507","-3.4556274"
"1980356","3.3154755","-17.243317","-2.3701782"
"1980377","-0.959671","-17.378998","-0.9824219"
"1980397","-4.0803375","-16.3721","-4.0602417"
"1980417","-2.6806793","-15.800812","-5.5908203"
"1980437","-1.1858063","-15.577057","-3.0247803"
"1980457","-2.0808258","-14.529694","-1.9559937"
"1980477","-7.9412994","-12.373077","-3.926941"
"1980497","-8.015091","-8.590668","-3.4746704"
"1980517","-6.9843903","-8.21933","-3.953125"
"1980537","-4.058914","-8.969147","-2.7105713"
"1980557","-1.3619537","-10.325958","-3.0604858"
"1980577","0.6042328","-10.392609","-1.9274292"
"1980597","2.1538544","-9.868927","-1.8774414"
"1980617","1.4683075","-8.064606","-1.7679443"
"1980637","0.48997498","-6.031769","-1.4418335"
"1980657","-1.1239166","-4.6963806","-0.48968506"
"1980677","-2.5569","-3.02536","0.39819336"
"1980697","-3.1567535","-1.9827576","0.43151855"
"1980717","-3.0210724","-2.4183655","0.17681885"
"1980737","-1.9403839","-2.8539734","0.29821777"
"1980757","-1.5214386","-2.7635193","0.83618164"
"1980777","-1.4738312","-2.7825623","0.6981201"
"1980798","0.22099304","-4.9701233","-0.22546387"
"1980818","2.1943207","-8.766815","-0.29211426"
"1980838","2.4109344","-12.861053","-1.4870605"
"1980858","2.2633514","-13.384735","-2.696289"
"1980878","2.6537323","-9.447601","-2.8652954"
"1980898","1.4825897","-6.7030334","-1.0466919"
"1980918","1.8110809","-8.002716","-2.0654907"
"1980938","1.7206268","-15.938873","-5.6360474"
"1980958","7.423996","-19.51419","-8.4591675"
"1980982","7.438278","-19.230927","1.4265137"
"1980998","-1.4238434","-10.133148","1.6383667"
"1981018","-3.1186676","-3.5799866","-2.9414673"
"1981038","1.8539276","0.9998474","9.336487"
"1981058","1.4849701","-19.51419","-4.807678"
"1981078","19.260986","-19.51419","-0.5015869"
"1981098","-8.52211","-9.95462","-3.2651978"
"1981118","-18.393509","-0.09512329","5.82782"
"1981138","-18.967178","2.2185974","13.766357"
"1981158","-5.822769","-16.1055","-0.8015137"
"1981178","8.940292","-19.51419","7.870178"
"1981198","8.468979","-14.136932","2.6428833"
"1981218","3.0464935","-7.5623474","-0.07550049"
"1981238","-1.6547394","-6.9648743","-0.31591797"
"1981258","-1.2786407","-7.662323","1.550293"
"1981277","-0.08131409","-8.885834","0.75286865"
"1981298","-0.47407532","-10.435455","1.171814"
"1981318","0.32572937","-9.69278","-1.2156982"
"1981339","2.8489227","-9.028656","-2.215454"
"1981358","5.4459076","-9.0191345","-2.132141"
"1981378","6.1076508","-9.402374","-2.067871"
"1981398","5.422104","-9.899872","-2.791504"
"1981418","4.781784","-10.14743","-3.0985718"
"1981438","2.6941986","-11.844635","-2.689148"
"1981458","-2.5140533","-14.115509","-3.3389893"
"1981478","-4.6516266","-13.648956","-2.6915283"
"1981498","-6.989151","-13.915558","-1.3966064"
"1981518","-5.218155","-12.018402","-0.7015381"
"1981538","-6.1131744","-11.082916","1.4574585"
"1981558","0.6423187","-10.040314","4.6185913"
"1981577","3.5082855","-11.023407","-0.25402832"
"1981597","1.0969696","-10.347382","-3.7984009"
"1981618","-0.04798889","-8.133636","-2.1654663"
"1981638","0.3138275","-6.9339294","-0.41351318"
"1981658","0.3804779","-6.288849","0.036376953"
"1981678","-0.64308167","-5.584259","0.12445068"
"1981697","-1.3405304","-5.327179","-0.5206299"
"1981717","-0.88349915","-5.6889954","-1.3132935"
"1981737","-0.47169495","-6.012726","-1.0562134"
"1981757","0.04246521","-6.6958923","-1.1085815"
"1981777","0.98509216","-7.586151","-1.7536621"
"1981797","2.3704681","-8.402618","-2.2559204"
"1981817","3.6035004","-8.80014","-2.651062"
"1981837","4.2152557","-9.176239","-3.5841675"
"1981857","4.910324","-9.716583","-4.1173706"
"1981877","5.712509","-10.037933","-5.762207"
"1981897","5.3411713","-10.347382","-4.960022"
"1981917","3.0036469","-9.392853","-5.4813232"
"1981937","-2.4593048","-10.523529","-1.0228882"
"1981957","-5.8370514","-17.643219","-2.908142"
"1981978","-8.117447","-19.51419","-0.80389404"
"1981998","-1.0287018","-8.809662","2.519104"
"1982018","-1.4286041","-6.5483093","4.244873"
"1982039","-2.511673","-5.84848","2.333435"
"1982058","0.92082214","-8.271698","1.6002808"
"1982078","6.3361664","-11.756561","3.6188354"
"1982098","4.5532684","-13.532318","0.93377686"
"1982118","1.311203","-11.406647","-0.822937"
"1982139","-1.6475983","-9.230988","-0.17071533"
"1982158","-2.29982","-7.695648","1.0075684"
"1982178","-1.6618805","-8.54068","0.7076416"
"1982198","-0.20747375","-9.861786","0.61242676"
"1982218","0.2566986","-10.559235","1.1170654"
"1982238","1.2754974","-9.895111","0.8171387"
"1982258","1.0922089","-9.05722","0.13873291"
"1982278","1.7872772","-8.966766","0.9790039"
"1982298","0.1424408","-9.94986","0.5933838"
"1982318","-0.8858795","-10.073639","-0.32543945"
"1982338","-0.16938782","-9.652313","-0.5253906"
"1982358","-0.51930237","-9.457123","-0.05645752"
"1982378","-0.050369263","-8.850128","-0.5682373"
"1982398","0.8827362","-10.047455","-0.19451904"
"1982418","0.7518158","-10.328339","-0.23260498"
"1982438","0.5709076","-9.488068","-0.58013916"
"1982458","0.16862488","-9.749908","-0.5610962"
"1982478","0.22099304","-9.683258","-0.33496094"
"1982499","0.099594116","-9.457123","-0.15881348"
"1982519","0.06388855","-9.50235","-0.08026123"
"1982541","0.32572937","-9.466644","0.5529175"
"1982559","0.46141052","-8.683502","0.5933838"
"1982578","0.55900574","-8.324066","0.710022"
"1982598","0.11149597","-9.909393","1.4574585"
"1982620","-0.8477936","-9.578522","0.71954346"
"1982639","-1.7523346","-9.492828","0.9123535"
"1982659","-2.8092194","-10.354523","0.74334717"
"1982679","-3.749466","-10.687775","1.0670776"
"1982699","-2.7520905","-9.002472","0.6005249"
"1982719","-0.516922","-8.293121","1.8597412"
"1982739","0.99461365","-9.238129","1.2717896"
"1982759","0.50187683","-9.966522","0.9813843"
"1982778","-1.4952545","-10.306915","0.31726074"
"1982799","-1.7309113","-9.464264","0.29107666"
"1982819","-1.8546906","-8.790619","0.9980469"
"1982838","-2.1760406","-9.259552","1.7502441"
"1982858","-2.0903473","-9.264313","2.0882568"
"1982880","-1.4428864","-9.214325","1.8764038"
"1982899","-0.6049957","-8.942963","1.947815"
"1982919","-0.20747375","-9.728485","1.7835693"
"1982938","-1.2476959","-11.761322","2.2572632"
"1982959","-2.4188385","-12.035065","1.1408691"
"1982979","-0.71687317","-10.821075","-0.3540039"
"1982999","0.08531189","-10.809174","0.56243896"
"1983018","-1.6023712","-11.6185","0.31488037"
"1983039","-2.261734","-11.74942","0.0078125"
"1983059","-1.7880402","-10.616364","-1.1442871"
"1983078","-1.6595001","-9.407135","-1.5679932"
"1983099","-1.4357452","-8.895355","-2.1797485"
"1983119","-0.4835968","-8.850128","-2.6415405"
"1983139","0.12815857","-8.79776","-2.4487305"
"1983159","-0.32173157","-8.933441","-1.4085083"
"1983180","-0.9882355","-9.035797","0.6743164"
"1983199","-2.0355988","-9.680878","1.5407715"
"1983219","-2.1165314","-9.802277","1.5883789"
"1983239","-1.2714996","-10.799652","1.2932129"
"1983259","-0.6478424","-12.073151","1.8549805"
"1983279","0.5209198","-11.532806","0.31011963"
"1983300","0.36143494","-11.201935","-0.2230835"
"1983319","1.016037","-11.963654","-2.484436"
"1983339","-0.04560852","-12.027924","0.3125"
"1983359","-0.8216095","-10.894867","0.7385864"
"1983379","-1.6404572","-10.654449","0.4100952"
"1983400","-1.7190094","-9.666595","0.59576416"
"1983419","-2.1808014","-8.383575","-0.1159668"
"1983439","-2.5807037","-7.6599426","-0.33258057"
"1983459","-2.6259308","-7.9598694","-0.027893066"
"1983479","-2.530716","-8.02652","-0.22546387"
"1983499","-2.2212677","-7.7027893","-0.758667"
"1983520","-1.569046","-7.3885803","-1.2109375"
"1983539","-0.9525299","-6.769684","-1.0109863"
"1983559","-0.43122864","-6.514984","-1.3085327"
"1983580","-0.27174377","-7.0362854","-1.4013672"
"1983600","-0.18605042","-8.1979065","-2.1678467"
"1983619","1.4611664","-8.231232","-3.0343018"
"1983640","3.6487274","-7.1457825","-2.0750122"
"1983659","4.665146","-8.914398","-2.2606812"
"1983679","6.052902","-11.863678","-3.305664"
"1983700","6.6241913","-11.278107","-4.717224"
"1983719","2.722763","-11.339996","-4.531555"
"1983739","-3.3686066","-14.12027","2.4262695"
"1983759","-4.437393","-19.390411","-2.079773"
"1983779","0.19718933","-16.057892","-2.6296387"
"1983799","-2.0451202","-5.7532654","5.1898804"
"1983820","-6.860611","-3.1158142","6.3443604"
"1983839","-3.5423737","-4.167938","1.947815"
"1983859","0.85417175","-11.085297","1.7216797"
"1983880","3.5297089","-15.72702","-0.19689941"
"1983900","3.4487762","-12.382599","-2.1559448"
"1983920","1.561142","-7.945587","1.0718384"
"1983940","0.2662201","-6.6697083","2.5072021"
"1983959","1.1898041","-7.269562","2.6262207"
"1983979","0.059127808","-10.673492","1.7383423"
"1984000","-0.031326294","-11.785126","0.76000977"
"1984019","-1.6095123","-9.576141","-0.8157959"
"1984039","-2.4331207","-8.709686","0.6600342"
"1984059","-1.4095612","-8.854889","0.9480591"
"1984079","-0.39076233","-9.007233","0.857605"
"1984101","-0.2931671","-9.738007","0.28155518"
"1984120","0.28526306","-9.4999695","0.74334717"
"1984140","0.1091156","-9.764191","0.37677002"
"1984160","0.011520386","-9.190521","0.2958374"
"1984180","-0.13606262","-8.652557","0.38153076"
"1984199","-0.5335846","-9.578522","0.67907715"
"1984219","-0.6906891","-9.897491","0.7576294"
"1984240","-0.9120636","-9.390472","0.19110107"
"1984260","0.04484558","-9.554718","0.34344482"
"1984279","0.618515","-9.542816","1.0408936"
"1984300","0.02104187","-9.75705","0.6981201"
"1984319","-0.4002838","-9.95224","0.36486816"
"1984340","-0.6240387","-9.999847","0.20300293"
"1984360","-0.78590393","-9.904633","-0.76104736"
"1984380","-0.2527008","-9.783234","-0.74438477"
"1984401","0.73753357","-10.963898","-0.49920654"
"1984420","2.2657318","-12.844391","-0.9490967"
"1984440","3.453537","-13.713226","-1.6489258"
"1984460","3.1607513","-13.710846","-2.548706"
"1984480","0.121017456","-12.911041","-3.2961426"
"1984500","-1.6928253","-11.570892","-5.186157"
"1984520","-2.4116974","-10.14505","-1.4204102"
"1984541","-2.8615875","-10.997223","1.6098022"
"1984560","-2.1950836","-11.092438","3.3474731"
"1984580","-0.7049713","-10.542572","3.5736084"
"1984600","1.6349335","-11.17337","0.5338745"
"1984620","3.9367523","-13.132416","-1.432312"
"1984640","1.7468109","-14.020294","-0.8395996"
"1984660","0.36619568","-11.29715","0.6743164"
"1984680","-1.5738068","-8.60257","1.0789795"
"1984701","-0.5002594","-7.764679","0.21490479"
"1984720","1.5182953","-7.719452","-0.05883789"
"1984741","0.8827362","-7.3838196","-0.88482666"
"1984760","-0.11463928","-7.283844","-1.2561646"
"1984781","-1.0763092","-6.772064","-0.989563"
"1984800","-1.6404572","-6.3197937","-0.56347656"
"1984820","-1.6856842","-6.4673767","-1.1300049"
"1984840","-0.65974426","-7.105316","-2.0488281"
"1984860","0.028182983","-7.6528015","-2.4558716"
"1984880","-0.51216125","-7.6337585","-2.9557495"
"1984901","-1.5619049","-6.9934387","-3.3128052"
"1984921","-1.5809479","-6.995819","-3.253296"
"1984941","-0.89302063","-8.014618","-3.1271362"
"1984960","-0.895401","-8.340729","-2.9367065"
"1984981","-0.7573395","-8.038422","-3.767456"
"1985000","0.26383972","-7.5195007","-4.2125854"
"1985020","2.38237","-7.6861267","-3.4937134"
"1985041","3.8010712","-8.116974","-3.2675781"
"1985060","5.2530975","-8.369293","-3.7507935"
"1985080","5.000778","-8.319305","-4.36969"
"1985101","3.3273773","-8.440704","-4.793396"
"1985121","1.1088715","-8.055084","-3.1604614"
"1985140","-2.1260529","-13.632294","-2.3892212"
"1985160","0.7779999","-19.51419","-10.575317"
"1985180","2.3799896","-19.51419","-3.638916"
"1985201","3.4559174","-10.328339","0.26013184"
"1985221","-3.4471588","-5.8699036","4.9542236"
"1985240","-5.4204865","-5.8175354","1.973999"
"1985260","-3.0496368","-6.42453","4.1710815"
"1985281","-0.12892151","-8.697784","2.5048218"
"1985300","1.1041107","-10.161713","0.5862427"
"1985321","2.3514252","-10.873444","0.17443848"
"1985341","1.984848","-11.742279","-0.91815186"
"1985361","-0.3764801","-9.735626","-0.35162354"
"1985381","-2.3164825","-7.96463","0.38867188"
"1985401","-2.833023","-8.290741","1.152771"
"1985421","-2.4378815","-9.978424","0.75286865"
"1985441","-1.8308868","-10.375946","1.0456543"
"1985461","-2.0974884","-10.359283","0.8147583"
"1985480","-1.6785431","-10.056976","0.42437744"
"1985501","-1.947525","-10.235504","0.34820557"
"1985521","-0.06227112","-10.116486","0.5910034"
"1985540","-0.2527008","-9.428558","2.197754"
"1985560","-0.6906891","-9.538055","2.3048706"
"1985582","-0.37409973","-9.902252","-0.96099854"
"1985601","0.34953308","-10.330719","0.64575195"
"1985621","-0.028945923","-10.252167","0.3624878"
"1985640","0.36143494","-9.804657","1.8692627"
"1985661","-0.9691925","-9.3333435","1.2860718"
"1985681","-1.1739044","-9.818939","0.2625122"
"1985700","-0.17176819","-9.621368","-1.1585693"
"1985722","-0.012283325","-10.009369","-1.0752563"
"1985741","-0.028945923","-9.323822","0.6195679"
"1985761","0.4875946","-9.226227","1.383667"
"1985780","-0.17176819","-7.548065","1.6526489"
"1985801","-0.96443176","-6.205536","1.1480103"
"1985821","-1.4952545","-6.03891","-0.17785645"
"1985841","-1.7261505","-8.378815","0.3529663"
"1985861","-1.7785187","-11.068634","1.1242065"
"1985881","-2.9710846","-10.892487","1.0670776"
"1985902","-3.8542023","-8.574005","-0.7158203"
"1985921","-1.3881378","-9.05246","0.66241455"
"1985942","-1.14534","-11.389984","2.178711"
"1985961","-1.1167755","-11.42807","2.6262207"
"1985981","1.1374359","-9.642792","0.9980469"
"1986001","1.4849701","-8.950104","-0.40875244"
"1986021","1.8539276","-9.1857605","0.3791504"
"1986042","1.7039642","-10.59494","0.8814087"
"1986061","1.2136078","-10.744904","0.1720581"
"1986081","2.76799","-11.985077","-2.0773926"
"1986102","2.408554","-13.149078","-0.0040893555"
"1986121","-0.14320374","-12.332611","-0.5777588"
"1986142","-1.3476715","-10.987701","-2.677246"
"1986161","-1.2310333","-10.804413","-1.9893188"
"1986181","-2.076065","-11.116241","1.3931885"
"1986201","-2.7639923","-11.121002","2.988037"
"1986222","-2.345047","-12.484955","1.6359863"
"1986241","-2.871109","-14.722504","2.281067"
"1986261","-2.81398","-11.592316","2.4976807"
"1986282","-5.020584","-11.461395","-0.94195557"
"1986301","-6.5297394","-11.673248","0.3791504"
"1986321","-5.3704987","-9.75943","0.921875"
"1986342","-3.9470367","-8.585907","2.2858276"
"1986361","-2.337906","-8.371674","1.8835449"
"1986381","-1.8166046","-8.238373","1.1408691"
"1986402","-2.9496613","-8.133636","-0.15881348"
"1986421","-4.1255646","-8.612091","-0.63012695"
"1986441","-4.499283","-8.41452","-0.17785645"
"1986462","-3.704239","-6.912506","0.3696289"
"1986482","-2.659256","-6.788727","0.26489258"
"1986501","-1.6833038","-7.212433","0.43389893"
"1986522","-1.357193","-7.893219","-0.31591797"
"1986541","-0.44789124","-8.66922","-1.5870361"
"1986562","-0.007522583","-9.8237","-1.2918701"
"1986582","0.41618347","-10.354523","-0.48968506"
"1986601","0.5137787","-10.011749","0.055419922"
"1986623","0.24241638","-8.690643","0.29107666"
"1986642","1.1207733","-8.119354","1.1194458"
"1986662","1.22789","-9.595184","-0.6848755"
"1986681","1.9348602","-10.573517","-3.34375"
"1986702","1.9967499","-11.292389","-3.0628662"
"1986722","-0.91444397","-13.149078","-0.8324585"
"1986741","-0.7954254","-12.811066","-4.3982544"
"1986761","3.7010956","-10.245026","-2.3725586"
"1986781","2.548996","-8.792999","1.1408691"
"1986802","-1.4095612","-9.578522","1.7907104"
"1986822","-2.633072","-10.345001","-2.3963623"
"1986841","-0.34791565","-10.345001","-0.18737793"
"1986862","0.29478455","-10.111725","2.5738525"
"1986882","-1.4309845","-9.578522","2.2596436"
"1986901","-2.2736359","-9.530914","1.2694092"
"1986922","-1.1786652","-9.421417","0.7576294"
"1986942","-0.10749817","-9.595184","0.29345703"
"1986962","0.13053894","-9.511871","0.18634033"
"1986982","-0.06703186","-9.916534","0.710022"
"1987002","0.2495575","-9.664215","1.46698"
"1987022","0.8827362","-9.573761","1.9906616"
"1987042","0.9898529","-10.092682","1.7026367"
"1987062","-0.60261536","-9.726105","0.93377686"
"1987082","-2.2212677","-9.673737","1.2598877"
"1987102","-3.0329742","-10.133148","0.8123779"
"1987122","-2.0617828","-9.511871","0.76239014"
"1987142","-1.1239166","-9.8784485","1.6907349"
"1987162","-1.1953278","-11.025787","0.86950684"
"1987182","-0.57881165","-11.021027","0.45770264"
"1987202","-0.56214905","-10.323578","0.03161621"
"1987222","0.059127808","-10.813934","-0.84436035"
"1987242","0.9827118","-11.49472","-0.69677734"
"1987262","1.477829","-11.270966","-0.75390625"
"1987282","1.394516","-10.380707","-0.54681396"
"1987302","1.5706635","-8.971527","-0.5111084"
"1987322","2.0467377","-8.516876","-1.9869385"
"1987342","0.86369324","-8.15744","-3.3937378"
"1987362","0.056747437","-8.164581","-2.5368042"
"1987382","1.6539764","-8.852509","-1.6893921"
"1987402","3.0131683","-9.6475525","-1.7846069"
"1987422","2.9798431","-9.216705","-1.7536621"
"1987442","3.1750336","-9.421417","-2.2130737"
"1987462","1.0850677","-9.142914","-2.9057617"
"1987482","0.6137543","-8.214569","-3.112854"
"1987502","1.1731415","-8.269318","-2.8200684"
"1987523","0.4804535","-8.166962","-3.5532227"
"1987543","-0.28126526","-7.843231","-3.593689"
"1987562","-0.83351135","-7.488556","-3.5579834"
"1987583","-0.9620514","-7.2552795","-3.9697876"
"1987603","0.2733612","-7.0696106","-3.336609"
"1987623","1.3873749","-7.174347","-2.8652954"
"1987643","1.4564056","-7.778961","-2.8771973"
"1987663","0.19480896","-7.9979553","-3.53656"
"1987683","-0.29792786","-7.593292","-4.4577637"
"1987703","-0.15034485","-7.32193","-4.255432"
"1987723","-0.7882843","-9.442841","-5.190918"
"1987743","-4.2088776","-11.213837","-4.0911865"
"1987763","-2.5354767","-18.771515","-4.9814453"
"1987783","0.9160614","-14.365448","-1.4918213"
"1987803","0.5113983","-7.2862244","1.6669312"
"1987823","-4.8230133","-6.162689","3.9639893"
"1987843","-5.1848297","-7.9717712","-1.6513062"
"1987863","-1.4095612","-10.049835","-0.19451904"
"1987883","1.5182953","-10.868683","1.2670288"
"1987903","1.7420502","-10.85202","1.6217041"
"1987923","0.35191345","-10.349762","0.14349365"
"1987943","0.02104187","-10.01413","0.5410156"
"1987963","-0.49549866","-9.588043","-0.0064697266"
"1987983","-0.6478424","-9.740387","0.086364746"
"1988003","-0.66212463","-10.066498","0.6505127"
"1988023","-0.7240143","-9.907013","0.7814331"
"1988043","-1.1929474","-9.902252","0.45532227"
"1988063","-0.67640686","-9.866547","-0.13739014"
"1988083","-0.60975647","-9.973663","0.05065918"
"1988103","-0.82398987","-8.935822","0.8409424"
"1988123","-0.38124084","-8.181244","1.5360107"
"1988143","0.2995453","-8.821564","1.576477"
"1988163","0.2328949","-10.392609","0.8480835"
"1988183","-0.91444397","-11.856537","0.49578857"
"1988203","-1.3095856","-10.102203","-0.05883789"
"1988223","-1.7237701","-8.840607","0.17919922"
"1988243","-0.033706665","-8.571625","1.2003784"
"1988263","0.5304413","-9.430939","1.9787598"
"1988283","0.406662","-9.530914","1.8502197"
"1988303","-0.2122345","-10.837738","1.4384155"
"1988323","-2.935379","-10.65683","0.5576782"
"1988343","-1.4785919","-8.376434","-1.2276001"
"1988363","0.22575378","-7.6456604","4.5995483"
"1988384","4.077194","-9.873688","2.511963"
"1988404","-0.16938782","-10.780609","0.38153076"
"1988424","-1.0310822","-9.961761","1.6121826"
"1988444","-0.72639465","-10.904388","2.7023926"
"1988463","-1.5738068","-10.771088","-1.1966553"
"1988484","-1.8308868","-10.456879","0.010192871"
"1988504","-1.8237457","-9.780853","0.395813"
"1988524","-2.8782501","-10.249786","0.72906494"
"1988544","-2.7021027","-10.78775","2.0930176"
"1988563","-1.9308624","-11.004364","2.1311035"
"1988584","-2.0855865","-9.983185","0.4696045"
"1988604","-1.9975128","-8.73111","-0.28497314"
"1988624","-2.2760162","-8.314545","2.0073242"
"1988644","-1.5309601","-7.6385193","2.659546"
"1988663","-2.4259796","-7.9598694","1.4788818"
"1988684","-3.563797","-8.257416","1.2479858"
"1988704","-3.1043854","-8.383575","1.8549805"
"1988724","-1.2976837","-9.150055","1.8597412"
"1988744","-0.8882599","-9.535675","1.5812378"
"1988763","-2.254593","-9.4809265","1.6193237"
"1988784","-3.082962","-9.495209","0.44818115"
"1988804","-2.8925323","-9.399994","0.65527344"
"1988824","-2.2712555","-9.792755","1.107544"
"1988844","-2.4569244","-10.114105","0.23632813"
"1988864","-1.6952057","-9.968903","0.4029541"
"1988884","-0.73353577","-9.673737","0.70526123"
"1988904","-0.8644562","-8.6406555","0.20062256"
"1988924","-1.8975372","-7.655182","0.4196167"
"1988944","-3.370987","-7.6528015","-0.22784424"
"1988964","-2.473587","-9.1857605","-0.48016357"
"1988984","-0.85017395","-11.5399475","2.2334595"
"1989004","-2.549759","-11.699432","4.7304688"
"1989024","-0.23365784","-11.156708","-0.6348877"
"1989044","1.5992279","-10.247406","0.75286865"
"1989064","-0.42884827","-8.819183","2.000183"
"1989084","-2.4045563","-8.388336","0.95758057"
"1989104","-1.6237946","-8.650177","1.6812134"
"1989124","0.5209198","-10.087921","1.7954712"
"1989144","0.6589813","-10.27359","1.4455566"
"1989164","-0.49073792","-9.50235","0.80285645"
"1989184","-0.95729065","-9.542816","1.3217773"
"1989204","-0.77638245","-9.918915","0.7814331"
"1989224","-0.4502716","-9.935577","0.99328613"
"1989244","-0.9620514","-9.778473","1.4122314"
"1989264","-1.1001129","-9.469025","1.4074707"
"1989284","-1.1929474","-9.271454","1.2456055"
"1989304","-1.1001129","-9.316681","1.2313232"
"1989324","-0.4264679","-9.804657","1.4884033"
"1989345","-0.17414856","-9.873688","1.6098022"
"1989364","-0.6383209","-9.4999695","1.3527222"
"1989384","-1.1977081","-9.63327","1.1408691"
"1989405","-1.2215118","-9.4999695","0.9694824"
"1989424","-0.92396545","-9.664215","1.197998"
"1989444","-0.76924133","-9.56662","1.7264404"
"1989464","-1.2262726","-9.338104","1.5907593"
"1989484","-1.5571442","-9.469025","1.255127"
"1989505","-1.2691193","-9.516632","1.0337524"
"1989524","-0.94062805","-9.664215","1.1480103"
"1989545","-1.0477448","-9.7308655","1.428894"
"1989564","-0.98109436","-9.516632","1.3122559"
"1989585","-1.0477448","-9.4999695","1.3979492"
"1989605","-1.1596222","-9.63327","1.4384155"
"1989625","-1.1381989","-10.111725","1.0456543"
"1989644","-0.6407013","-9.785614","0.543396"
"1989664","-0.5074005","-9.4999695","1.2337036"
"1989685","-1.2143707","-9.597565","1.5812378"
"1989705","-1.0263214","-9.104828","1.33844"
"1989724","-0.43122864","-9.342865","1.4455566"
"1989745","-0.56214905","-9.733246","1.697876"
"1989764","-1.3738556","-9.721344","1.6574097"
"1989784","-1.2619781","-9.50235","1.3717651"
"1989805","-0.8287506","-9.528534","1.4788818"
"1989824","-0.58833313","-9.4809265","1.4884033"
"1989846","-0.41218567","-9.583282","1.3717651"
"1989864","-0.62879944","-9.918915","1.1051636"
"1989885","-0.65260315","-9.611847","1.0527954"
"1989905","-0.728775","-9.485687","1.217041"
"1989925","-0.7240143","-9.37619","1.4931641"
"1989945","-0.5573883","-9.638031","1.59552"
"1989964","-0.5645294","-9.666595","1.2860718"
"1989985","-0.7882843","-9.688019","1.5526733"
"1990004","-1.1572418","-9.597565","1.428894"
"1990026","-1.0001373","-9.347626","0.7243042"
"1990045","-0.49787903","-9.535675","0.67907715"
"1990065","-0.46455383","-9.992706","1.3527222"
"1990084","-0.895401","-9.840363","1.53125"
"1990105","-0.7406769","-9.452362","1.0289917"
"1990124","-0.72639465","-9.514252","0.8742676"
"1990146","-0.8692169","-9.43808","1.0527954"
"1990165","-1.2119904","-9.699921","1.1694336"
"1990185","-1.311966","-9.845123","1.3146362"
"1990206","-1.2238922","-9.709442","1.4193726"
"1990225","-1.2476959","-9.754669","1.4146118"
"1990246","-0.6573639","-9.618988","1.1099243"
"1990265","0.121017456","-9.983185","0.05065918"
"1990285","0.21385193","-10.471161","-0.7824707"
"1990305","-0.42170715","-10.316437","-0.9562378"
"1990325","-0.40504456","-10.547333","-1.0038452"
"1990345","0.032943726","-10.630646","-0.989563"
"1990365","0.19004822","-10.442596","-1.3323364"
"1990385","-0.25032043","-10.380707","0.31488037"
"1990405","-0.20509338","-10.6354065","1.8145142"
"1990425","-0.25032043","-9.454742","3.0761108"
"1990445","1.1707611","-9.385712","2.461975"
"1990465","-0.02180481","-9.131012","1.8216553"
"1990485","-1.9499054","-8.79776","1.1194458"
"1990505","-2.280777","-8.985809","1.2598877"
"1990525","-2.3664703","-8.569244","-0.046936035"
"1990545","-2.1736603","-7.881317","-0.65631104"
"1990565","-1.4666901","-7.745636","-1.0324097"
"1990585","-0.91444397","-7.7313538","-0.53015137"
"1990605","-1.716629","-8.107452","1.0718384"
"1990625","-2.10701","-7.733734","3.8901978"
"1990645","-2.7092438","-10.685394","3.9449463"
"1990665","-1.3857574","-14.9653015","-1.3466187"
"1990686","3.3797455","-12.573029","-2.329712"
"1990705","2.1871796","-9.704681","-1.4918213"
"1990726","-0.51930237","-7.990814","-0.05883789"
"1990745","-1.9380035","-8.016998","0.83380127"
"1990765","0.025802612","-9.576141","1.0527954"
"1990786","1.3849945","-10.735382","0.6481323"
"1990806","0.3162079","-9.88797","0.6029053"
"1990826","-1.7761383","-9.340485","1.0147095"
"1990845","-1.9261017","-9.257172","0.81951904"
"1990865","-1.1286774","-9.8784485","0.30297852"
"1990885","-0.7811432","-10.056976","0.7338257"
"1990906","-1.3405304","-9.445221","2.0025635"
"1990925","-2.62117","-9.181","1.9978027"
"1990945","-2.9306183","-9.235748","1.217041"
"1990965","-1.4904938","-9.357147","0.90045166"
"1990986","0.06150818","-9.764191","0.6838379"
"1991005","0.4138031","-10.052216","0.7909546"
"1991026","-0.026565552","-9.907013","0.90997314"
"1991046","-0.89064026","-9.611847","0.7219238"
"1991065","-0.84303284","-9.640411","0.33392334"
"1991085","-0.5026398","-9.861786","0.37200928"
"1991106","-0.66926575","-9.814178","0.710022"
"1991125","-0.9287262","-9.797516","0.6671753"
"1991146","-0.73353577","-9.840363","0.83380127"
"1991166","-0.8977814","-9.590424","1.0765991"
"1991185","-1.6380768","-9.350006","1.281311"
"1991206","-1.7737579","-9.297638","0.7314453"
"1991226","-1.126297","-9.683258","0.5172119"
"1991245","-0.4169464","-9.961761","0.7909546"
"1991266","0.0043792725","-9.654694","1.2027588"
"1991286","-0.45741272","-9.542816","0.77905273"
"1991305","-1.4333649","-9.509491","0.44818115"
"1991327","-1.8166046","-9.635651","0.52197266"
"1991346","-1.4333649","-9.880829","0.70288086"
"1991366","-1.0120392","-9.776093","1.3027344"
"1991387","-0.95729065","-9.604706","1.3503418"
"1991406","-0.99061584","-9.321442","0.7147827"
"1991427","-0.40504456","-9.618988","0.48864746"
"1991446","0.25431824","-9.918915","0.755249"
"1991466","0.06388855","-9.873688","1.2432251"
"1991486","-0.50502014","-9.521393","1.1123047"
"1991506","-0.85017395","-9.5642395","1.1194458"
"1991526","-1.1334381","-9.721344","0.9385376"
"1991546","-0.97395325","-9.854645","1.0337524"
"1991566","-0.5026398","-9.785614","1.2955933"
"1991586","-0.7621002","-9.609467","1.197998"
"1991606","-0.9763336","-9.454742","1.114685"
"1991626","-1.3548126","-9.469025","1.0813599"
"1991646","-1.7428131","-9.385712","0.9242554"
"1991666","-1.8285065","-9.290497","1.0789795"
"1991686","-1.7570953","-9.435699","1.0837402"
"1991706","-1.4238434","-9.609467","0.99090576"
"1991726","-1.4167023","-9.683258","0.986145"
"1991746","-1.1572418","-9.5642395","0.88378906"
"1991766","-1.0048981","-9.661835","0.83618164"
"1991787","-1.0667877","-9.659454","0.89331055"
"1991806","-1.254837","-9.6285095","0.6600342"
"1991827","-0.9263458","-9.635651","0.85284424"
"1991846","-0.80018616","-9.626129","0.9123535"
"1991866","-0.82637024","-9.549957","0.73620605"
"1991886","-0.9358673","-9.716583","0.7481079"
"1991907","-1.1572418","-9.718964","0.6409912"
"1991926","-0.9953766","-9.583282","0.6576538"
"1991947","-1.0120392","-9.63089","0.77905273"
"1991966","-1.1524811","-9.554718","0.99090576"
"1991986","-1.3548126","-9.478546","0.8457031"
"1992007","-1.3524323","-9.571381","0.8290405"
"1992027","-1.3524323","-9.664215","0.98376465"
"1992046","-1.4547882","-9.740387","0.85998535"
"1992066","-1.3857574","-9.595184","1.0028076"
"1992086","-1.569046","-9.37619","1.2337036"
"1992106","-1.8761139","-9.442841","1.1575317"
"1992126","-1.7071075","-9.580902","1.1218262"
"1992146","-1.3405304","-9.626129","1.1289673"
"1992166","-1.5642853","-9.752289","0.857605"
"1992186","-1.4286041","-9.538055","1.0908813"
"1992206","-1.6666412","-9.359528","0.94091797"
"1992226","-1.5523834","-9.421417","0.90283203"
"1992246","-1.6761627","-9.609467","0.9694824"
"1992266","-1.3524323","-9.492828","0.9813843"
"1992286","-1.3857574","-9.559479","0.7838135"
"1992306","-1.2500763","-9.63327","0.8290405"
"1992326","-1.0691681","-9.511871","0.69573975"
"1992346","-0.8477936","-9.618988","0.7171631"
"1992366","-1.2024689","-9.690399","0.7504883"
"1992386","-1.6571198","-9.735626","0.88378906"
"1992406","-1.3333893","-9.523773","0.7909546"
"1992426","-1.0477448","-9.63327","0.76953125"
"1992446","-1.3429108","-9.585663","0.90997314"
"1992466","-1.6928253","-9.476166","0.90045166"
"1992486","-1.7904205","-9.426178","0.85046387"
"1992506","-1.588089","-9.354767","0.90045166"
"1992527","-1.421463","-9.514252","0.9385376"
"1992547","-1.1929474","-9.673737","0.9075928"
"1992567","-1.3786163","-9.602325","0.72906494"
"1992587","-1.4524078","-9.492828","0.7576294"
"1992607","-1.4119415","-9.657074","1.0123291"
"1992627","-1.4357452","-9.609467","0.8956909"
"1992647","-1.2357941","-9.733246","0.9242554"
"1992667","-0.978714","-9.699921","0.9052124"
"1992687","-1.5023956","-9.63089","0.9980469"
"1992707","-2.0784454","-9.569","1.1622925"
"1992727","-2.159378","-9.192902","0.8980713"
"1992747","-1.6452179","-9.366669","1.2146606"
"1992767","-1.3667145","-9.514252","1.0742188"
"1992787","-1.2381744","-9.714203","0.8742676"
"1992807","-1.1929474","-9.63327","0.63861084"
"1992827","-1.3500519","-9.599945","0.921875"
"1992847","-1.4976349","-9.50235","0.86950684"
"1992867","-1.4500275","-9.457123","0.9456787"
"1992887","-1.4119415","-9.604706","0.95996094"
"1992907","-1.5547638","-9.592804","0.921875"
"1992927","-1.4690704","-9.721344","0.98376465"
"1992949","-1.5833282","-9.611847","1.0813599"
"1992967","-1.6595001","-9.490448","1.1456299"
"1992987","-1.588089","-9.464264","0.857605"
"1993007","-1.3786163","-9.63327","0.8480835"
"1993027","-1.4333649","-9.666595","0.79571533"
"1993048","-1.4643097","-9.573761","0.8742676"
"1993067","-1.5381012","-9.511871","0.8718872"
"1993088","-1.5476227","-9.523773","1.0194702"
"1993107","-1.5119171","-9.592804","0.9623413"
"1993127","-1.4238434","-9.549957","0.93377686"
"1993148","-1.2810211","-9.5642395","1.0194702"
"1993167","-1.3310089","-9.552338","0.9528198"
"1993187","-1.319107","-9.519012","0.95996094"
"1993208","-1.2167511","-9.642792","0.9813843"
"1993227","-1.376236","-9.547577","0.8742676"
"1993247","-1.2572174","-9.557098","0.921875"
"1993267","-1.3238678","-9.552338","0.92663574"
"1993288","-1.5261993","-9.590424","0.74334717"
"1993307","-1.3857574","-9.5642395","0.79571533"
"1993327","-1.1691437","-9.621368","0.8814087"
"1993348","-1.2357941","-9.559479","0.9147339"
"1993367","-1.4666901","-9.507111","0.7147827"
"1993387","-1.4643097","-9.526154","0.6647949"
"1993408","-1.2238922","-9.718964","0.70526123"
"1993427","-1.1310577","-9.69278","0.7504883"
"1993447","-1.1596222","-9.552338","0.8480835"
"1993467","-1.2881622","-9.514252","0.7980957"
"1993487","-1.2905426","-9.533295","0.6671753"
"1993509","-1.2500763","-9.635651","0.7576294"
"1993528","-1.1548615","-9.618988","0.7909546"
"1993547","-1.1358185","-9.618988","0.87664795"
"1993568","-1.126297","-9.549957","0.98376465"
"1993588","-1.2024689","-9.495209","0.9123535"
"1993608","-1.3024445","-9.592804","0.99090576"
"1993627","-1.5142975","-9.661835","0.99090576"
"1993648","-1.6618805","-9.621368","1.0004272"
"1993668","-1.5976105","-9.528534","1.1551514"
"1993687","-1.4666901","-9.549957","1.133728"
"1993707","-1.5071564","-9.616608","1.0147095"
"1993727","-1.4809723","-9.595184","0.9147339"
"1993747","-1.4714508","-9.554718","0.986145"
"1993767","-1.4190826","-9.63089","1.0527954"
"1993787","-1.3310089","-9.526154","0.9813843"
"1993807","-1.2167511","-9.552338","0.9361572"
"1993827","-1.1929474","-9.549957","0.8647461"
"1993847","-1.088211","-9.421417","0.92663574"
"1993867","-1.1334381","-9.602325","0.72906494"
"1993887","-0.9858551","-9.671356","0.7314453"
"1993907","-0.85969543","-9.680878","0.8457031"
"1993928","-0.9287262","-9.6285095","0.8314209"
"1993948","-0.98109436","-9.585663","0.90997314"
"1993968","-1.0382233","-9.680878","1.0646973"
"1993988","-1.2976837","-9.461884","1.1932373"
"1994009","-1.5571442","-9.452362","1.1932373"
"1994028","-1.6428375","-9.50473","1.1218262"
"1994048","-1.5857086","-9.580902","0.9647217"
"1994068","-1.7666168","-9.690399","0.8956909"
"1994088","-1.9427643","-9.69754","1.0099487"
"1994108","-1.8213654","-9.63089","1.217041"
"1994128","-1.8570709","-9.514252","1.2908325"
"1994148","-1.8047028","-9.426178","1.2289429"
"1994168","-1.6261749","-9.497589","1.2027588"
"1994188","-1.5666656","-9.407135","1.1741943"
"1994208","-1.3619537","-9.490448","1.0813599"
"1994229","-0.99061584","-9.569","0.9290161"
"1994248","-0.67640686","-9.728485","0.85998535"
"1994268","-0.09321594","-9.747528","0.921875"
"1994288","0.23051453","-9.519012","0.9528198"
"1994309","-0.13606262","-9.678497","0.5029297"
"1994328","-0.42170715","-9.75705","0.6433716"
"1994348","-0.286026","-9.721344","0.80999756"
"1994368","-0.32173157","-9.704681","0.8123779"
"1994389","-0.35505676","-9.688019","0.6933594"
"1994408","-0.1789093","-9.76181","0.71954346"
"1994429","-0.052749634","-9.50473","0.86712646"
"1994448","-0.4098053","-9.473785","0.7338257"
"1994469","-0.7906647","-9.680878","0.63861084"
"1994488","-0.6906891","-9.778473","1.0908813"
"1994508","-0.61213684","-9.716583","1.33844"
"1994529","-0.895401","-9.530914","1.2075195"
"1994549","-1.2524567","-9.63089","0.85998535"
"1994569","-1.1096344","-9.530914","0.9813843"
"1994589","-1.0548859","-9.590424","1.0718384"
"1994609","-1.0667877","-9.740387","1.0432739"
"1994629","-1.0525055","-9.649933","0.89331055"
"1994649","-0.86683655","-9.442841","0.7409668"
"1994668","-0.42408752","-9.657074","0.67907715"
"1994688","-0.04560852","-9.75705","0.921875"
"1994709","-0.28364563","-9.738007","1.2384644"
"1994729","-0.8620758","-9.590424","1.2337036"
"1994748","-1.0525055","-9.442841","1.2456055"
"1994768","-0.9120636","-9.495209","1.0623169"
"1994790","-0.7978058","-9.611847","1.0670776"
"1994809","-0.95729065","-9.818939","1.2622681"
"1994829","-1.1239166","-9.554718","1.1813354"
"1994848","-1.1501007","-9.588043","1.1123047"
"1994869","-0.7573395","-9.492828","1.2622681"
"1994889","-0.6549835","-9.559479","1.2218018"
"1994908","-0.9620514","-10.0260315","0.857605"
"1994930","-0.7311554","-9.8784485","0.755249"
"1994949","-0.6240387","-9.507111","1.0194702"
"1994969","-0.5264435","-9.297638","1.4169922"
"1994989","-0.48597717","-9.411896","1.2646484"
"1995009","-0.58595276","-9.578522","0.96710205"
"1995028","-0.9263458","-9.721344","0.85998535"
"1995048","-0.99061584","-9.649933","0.9052124"
"1995068","-0.5240631","-9.43808","0.9052124"
"1995089","0.032943726","-9.75705","1.1289673"
"1995109","-0.23603821","-10.259308","1.2408447"
"1995129","-0.80970764","-10.514008","0.7219238"
"1995149","-0.9525299","-9.9427185","0.4362793"
"1995169","-1.0691681","-9.592804","0.5862427"
"1995189","-1.2476959","-9.383331","1.0480347"
"1995210","-1.5857086","-9.75705","1.1622925"
"1995229","-1.7285309","-10.178375","0.92663574"
"1995249","-1.7404327","-9.999847","0.6576538"
"1995269","-1.588089","-9.966522","0.6933594"
"1995289","-1.5761871","-9.976044","0.79571533"
"1995309","-1.9713287","-9.857025","0.63861084"
"1995329","-2.3331451","-9.716583","0.45770264"
"1995350","-2.3736115","-9.678497","0.3125"
"1995369","-2.2950592","-9.585663","0.17681885"
"1995389","-2.2069855","-9.30954","-0.03503418"
"1995410","-2.030838","-9.192902","-0.0040893555"
"1995429","-1.8166046","-9.316681","-0.046936035"
"1995450","-1.9070587","-9.923676","-0.089782715"
"1995469","-2.1308136","-10.0784","-0.61346436"
"1995489","-2.0022736","-9.771332","-0.7729492"
"1995509","-2.0141754","-9.530914","-0.7110596"
"1995530","-2.223648","-9.7951355","-0.7919922"
"1995549","-2.1760406","-9.811798","-1.0895386"
"1995569","-1.947525","-9.511871","-1.2156982"
"1995590","-1.652359","-9.552338","-1.6727295"
"1995609","-1.2810211","-10.01651","-1.5489502"
"1995630","-1.6737823","-9.976044","-1.8583984"
"1995650","-1.6166534","-9.811798","-2.1726074"
"1995669","-1.1596222","-10.199799","-2.2583008"
"1995689","-0.5145416","-10.637787","-2.8081665"
"1995710","0.72325134","-10.942474","-2.2511597"
"1995729","0.5185394","-11.209076","-2.3082886"
"1995749","0.1995697","-11.827972","-2.4106445"
"1995769","0.073410034","-11.504242","-2.5653687"
"1995789","-0.24317932","-10.461639","-2.5748901"
"1995810","-1.0596466","-10.390228","-3.2175903"
"1995830","-2.2569733","-10.549713","-3.8388672"
"1995849","-0.6549835","-10.706818","-3.6793823"
"1995869","0.56614685","-10.537811","-3.934082"
"1995890","-0.46217346","-10.037933","-6.3311157"
"1995911","0.37571716","-10.01889","-5.5598755"
"1995930","0.31144714","-10.78775","-6.1121216"
"1995950","-0.11701965","-9.787994","-6.6881714"
"1995969","-0.43122864","-8.647797","-6.659607"
"1995989","0.2733612","-8.766815","-7.3380127"
"1996010","0.9470062","-8.124115","-6.3549194"
"1996030","-0.06227112","-7.2409973","-5.8431396"
"1996049","-0.46217346","-6.329315","-5.6503296"
"1996069","-0.73353577","-5.8127747","-4.5601196"
"1996089","-1.254837","-4.353607","-4.0769043"
"1996111","-1.5023956","-2.9967957","-3.453247"
"1996130","-1.6499786","-1.106781","-2.791504"
"1996151","-2.4640656","-0.433136","-2.8652954"
"1996170","-2.287918","-0.23080444","-2.6082153"
"1996190","-2.1355743","-0.70687866","-2.8962402"
"1996211","-1.2429352","-1.5733337","-3.4770508"
"1996230","-0.13130188","-2.2398376","-4.588684"
"1996250","0.323349","-2.7206726","-5.0147705"
"1996270","0.8827362","-3.563324","-5.5336914"
"1996289","1.6349335","-3.9513245","-5.7860107"
"1996310","2.5347137","-5.1129456","-6.673889"
"1996330","2.1371918","-6.5744934","-7.3046875"
"1996349","2.0538788","-7.8456116","-7.3999023"
"1996369","2.4323578","-9.05722","-7.7926636"
"1996391","3.0988617","-10.168854","-7.9973755"
"1996410","2.0705414","-10.561615","-7.140442"
"1996430","-0.24079895","-9.576141","-6.1002197"
"1996450","-1.171524","-9.69278","-6.916687"
"1996470","-2.0855865","-10.7211","-9.2161255"
"1996490","-1.7332916","-10.844879","-7.9926147"
"1996510","-2.9020538","-9.614227","-5.274231"
"1996530","-1.6356964","-8.631134","-4.2268677"
"1996550","0.06864929","-8.583527","-2.8795776"
"1996570","0.24003601","-8.481171","-0.86816406"
"1996591","-0.7978058","-9.37619","-2.6677246"
"1996611","-0.98347473","-9.509491","-4.5006104"
"1996630","-1.2905426","-8.302643","-3.6984253"
"1996650","-2.1427155","-7.079132","-2.7700806"
"1996670","-1.8451691","-7.495697","-2.4225464"
"1996690","-0.747818","-8.852509","-2.715332"
"1996710","-0.27650452","-10.375946","-3.08667"
"1996731","-0.25508118","-11.413788","-2.4915771"
"1996751","0.013900757","-12.875336","-4.388733"
"1996770","0.8993988","-12.2326355","-4.145935"
"1996790","1.2159882","-11.55661","-4.7767334"
"1996811","1.3469086","-12.094574","-5.9050293"
"1996830","0.1257782","-12.137421","-4.857666"
"1996850","-0.286026","-10.697296","-2.753418"
"1996870","-0.7716217","-9.240509","-0.28497314"
"1996890","-1.4976349","-8.645416","0.47198486"
"1996911","-0.9430084","-9.073883","0.06732178"
"1996931","-0.54548645","-9.50473","-0.05407715"
"1996951","-0.6407013","-10.27359","-0.35162354"
"1996971","-1.0144196","-10.061737","-0.42541504"
"1996991","-1.042984","-9.516632","-0.092163086"
"1997012","-0.7121124","-9.607086","-0.14215088"
"1997031","-0.37886047","-9.95462","0.11016846"
"1997051","-0.43122864","-9.966522","0.37438965"
"1997070","-0.5240631","-10.030792","0.5933838"
"1997090","-0.83351135","-10.0903015","1.0194702"
"1997111","-0.84065247","-9.816559","0.77667236"
"1997130","-0.70973206","-9.37619","1.0742188"
"1997152","-0.5597687","-9.7951355","1.1551514"
"1997171","-0.38124084","-10.076019","0.7314453"
"1997190","-0.48835754","-9.768951","1.0408936"
"1997212","-0.3098297","-9.430939","0.9385376"
"1997231","0.035324097","-9.804657","0.8218994"
"1997251","-0.0884552","-9.785614","0.5267334"
"1997271","-0.51216125","-9.6475525","0.6243286"
"1997291","-0.96681213","-9.69754","0.690979"
"1997310","-1.2334137","-9.723724","0.9980469"
"1997330","-1.1405792","-9.8237","0.9052124"
"1997350","-0.831131","-10.049835","1.300354"
"1997370","-0.94776917","-9.899872","0.9718628"
"1997390","-1.062027","-9.797516","0.8909302"
"1997410","-0.8620758","-9.840363","1.197998"
"1997430","-0.8454132","-9.611847","1.5574341"
"1997450","-1.1977081","-9.464264","1.447937"
"1997470","-1.4143219","-9.638031","0.6981201"
"1997490","-1.2167511","-9.673737","0.4124756"
"1997511","-0.94062805","-9.75705","0.74572754"
"1997531","-0.67640686","-9.721344","0.9718628"
"1997551","-0.69306946","-9.802277","0.88378906"
"1997571","-1.1834259","-9.742767","0.36486816"
"1997591","-1.9427643","-9.454742","-0.1564331"
"1997611","-2.947281","-9.347626","1.0289917"
"1997631","-2.9329987","-9.276215","0.34106445"
"1997651","-1.9903717","-9.657074","-0.61346436"
"1997671","-1.1953278","-10.4664","-0.84436035"
"1997691","-1.3857574","-10.259308","-0.97766113"
"1997712","-2.3022003","-9.166718","0.35534668"
"1997732","-2.261734","-8.4288025","0.9623413"
"1997752","-1.3500519","-8.609711","1.2527466"
