"Time","AccelX","AccelY","AccelZ"
"3107811","-4.9539337","2.6756287","7.1608276"
"3107831","-4.4635773","3.832489","8.241516"
"3107851","-4.187454","3.5230408","6.546692"
"3107871","-3.9470367","4.132416","6.9680176"
"3107892","-3.4376373","3.7825012","9.234131"
"3107912","-3.1234283","1.9972229","8.869934"
"3107932","-3.1757965","1.5687561","8.1605835"
"3107952","-4.692093","3.3207092","11.366943"
"3107972","-2.280777","2.8493958","10.738525"
"3107992","-3.0782013","0.7189636","10.429077"
"3108012","-3.3162384","0.0786438","10.405273"
"3108032","-2.0594025","1.2093201","12.761841"
"3108052","-1.2667389","1.5259094","13.297424"
"3108072","0.68992615","0.7618103","9.883972"
"3108092","3.710617","3.2778625","5.073242"
"3108112","-10.985794","2.1210022","6.565735"
"3108132","1.2112274","2.2209778","5.8635254"
"3108152","0.20433044","2.511383","7.8654175"
"3108173","1.496872","3.1302795","8.301025"
"3108193","0.60899353","3.5587463","8.791382"
"3108213","-0.052749634","2.8517761","9.541199"
"3108233","0.60899353","2.670868","9.146057"
"3108253","0.6351776","3.1064758","8.867554"
"3108273","0.9255829","2.5518494","9.450745"
"3108293","1.3040619","2.632782","8.767578"
"3108313","2.5727997","3.5611267","7.408386"
"3108333","2.7394257","4.03244","7.855896"
"3108353","2.1300507","2.5827942","7.7559204"
"3108373","1.7587128","2.761322","7.977295"
"3108393","2.2585907","3.4302063","7.889221"
"3108413","1.4111786","3.056488","8.58429"
"3108433","1.4825897","2.5542297","8.112976"
"3108453","2.2490692","2.7589417","9.110352"
"3108474","3.1607513","2.9112854","10.083923"
"3108494","1.8634491","2.0329285","10.419556"
"3108514","0.78752136","2.1495667","10.400513"
"3108534","1.5897064","2.5447083","9.572144"
"3108554","2.0538788","2.2852478","8.800903"
"3108574","1.5920868","2.3209534","8.546204"
"3108594","1.3231049","2.754181","8.674744"
"3108614","2.1847992","2.966034","9.774475"
"3108634","2.2823944","1.728241","9.860168"
"3108654","0.06388855","1.4045105","9.42218"
"3108674","1.394516","2.7184753","9.279358"
"3108694","3.7629852","3.5397034","11.321716"
"3108714","3.1274261","3.1040955","9.734009"
"3108734","1.2897797","2.2185974","8.5224"
"3108754","1.8110809","2.9374695","8.472412"
"3108775","2.8846283","2.5447083","7.8320923"
"3108795","1.6825409","2.6684875","7.3536377"
"3108815","0.32810974","2.7208557","8.065369"
"3108835","1.9634247","2.4613953","6.251526"
"3108855","2.5347137","2.2900085","5.611206"
"3108875","3.8677216","2.6732483","6.156311"
"3108895","5.3054657","4.0681458","8.591431"
"3108915","4.608017","1.4187927","11.402649"
"3108935","4.043869","2.0400696","12.666626"
"3108955","5.4578094","2.3233337","12.30481"
"3108975","5.372116","1.9805603","6.315796"
"3108995","8.8641205","2.799408","3.718811"
"3109015","8.364243","0.97366333","1.864502"
"3109035","10.292343","0.21194458","4.275818"
"3109055","8.621323","-0.5307312","3.5878906"
"3109076","6.9217377","0.5975647","10.076782"
"3109096","5.603012","2.0519714","14.397156"
"3109116","6.0552826","-4.058441","3.8140259"
"3109136","7.6191864","-2.665924","3.8568726"
"3109156","5.165024","-3.4371643","-0.4873047"
"3109176","9.973373","-2.1874695","-1.4751587"
"3109196","12.58226","0.10006714","2.6619263"
"3109216","10.254257","-2.363617","0.59814453"
"3109236","9.556808","-3.3443298","1.614563"
"3109256","9.009323","-3.7132874","0.35534668"
"3109276","10.697006","-1.9113464","-0.8157959"
"3109296","10.266159","-1.9541931","-0.19927979"
"3109316","9.732956","-5.4580994","1.4765015"
"3109336","9.62822","-6.0365295","2.2858276"
"3109357","11.246872","-7.019623","2.345337"
"3109377","12.722702","-6.341217","1.2075195"
"3109397","7.174057","-1.2496033","0.63861084"
"3109417","3.6796722","-4.6773376","-0.19689941"
"3109437","6.8884125","-10.118866","-5.1123657"
"3109457","11.082626","-3.8703918","-2.8343506"
"3109477","9.706772","-2.9182434","-0.84198"
"3109497","5.607773","-4.5297546","3.5188599"
"3109517","6.500412","-4.9772644","-2.2773438"
"3109537","10.835068","-2.7754211","0.5267334"
"3109557","10.961227","-2.370758","4.592407"
"3109577","11.04216","-4.1774597","5.9682617"
"3109597","8.009567","-3.5299988","8.581909"
"3109617","5.6506195","-4.4393005","9.16748"
"3109637","7.250229","-6.129364","-2.5891724"
"3109658","4.622299","-6.579254","3.9282837"
"3109678","3.8105927","-5.365265","4.5424194"
"3109698","7.7429657","-3.525238","8.00824"
"3109718","4.5294647","-4.0108337","3.8925781"
"3109738","8.842697","-5.78421","14.16626"
"3109758","5.857712","-8.228851","8.7771"
"3109778","4.8627167","-4.9153748","-6.969055"
"3109798","4.2771454","-5.572357","4.116333"
"3109818","8.964096","-5.3438416","16.73468"
"3109838","4.391403","-4.9986877","10.793274"
"3109858","3.113144","-4.872528","6.6918945"
"3109878","2.5442352","-6.4078674","15.313599"
"3109898","2.6037445","-7.1124573","4.6900024"
"3109918","-5.8703766","-10.447357","3.4926758"
"3109938","-4.5040436","-11.256683","13.811584"
"3109959","7.174057","-2.1993713","9.634033"
"3109979","3.5535126","-4.256012","6.3253174"
"3109999","2.356186","-3.4585876","7.791626"
"3110019","2.344284","-3.1943665","6.1729736"
"3110039","1.4659271","-4.6249695","5.70166"
"3110059","0.6351776","-4.8677673","5.0422974"
"3110079","2.9322357","-5.84848","5.746887"
"3110099","0.71372986","-8.309784","9.845886"
"3110119","1.09935","-6.629242","13.187927"
"3110139","0.8755951","-5.777069","10.398132"
"3110159","1.0326996","-4.698761","6.21344"
"3110179","0.47569275","-3.3657532","3.77594"
"3110199","0.8993988","-4.8701477","4.411499"
"3110219","0.8184662","-5.3700256","6.477661"
"3110239","1.0041351","-6.6340027","8.015381"
"3110260","1.118393","-7.4671326","6.7109375"
"3110280","0.7280121","-8.892975","0.90997314"
"3110300","1.4754486","-8.069366","0.75286865"
"3110320","3.2988129","-9.409515","8.251038"
"3110340","4.4437714","-9.933197","7.098938"
"3110360","4.339035","-9.797516","6.5942993"
"3110380","3.313095","-10.164093","5.1922607"
"3110400","2.7370453","-9.828461","3.9354248"
"3110420","2.6061249","-8.885834","3.1832275"
"3110440","2.4585419","-9.090546","2.788086"
"3110460","2.6561127","-8.892975","2.5690918"
"3110480","2.3680878","-8.502594","3.0880127"
"3110500","1.8348846","-7.878937","4.2044067"
"3110520","1.7134857","-7.4599915","4.4281616"
"3110540","1.4611664","-7.150543","4.732849"
"3110560","0.91130066","-7.533783","5.130371"
"3110581","0.48521423","-7.8836975","4.9328003"
"3110601","0.42808533","-7.6194763","5.0422974"
"3110621","0.6708832","-7.564728","5.0042114"
"3110641","0.7684784","-7.5361633","6.0372925"
"3110661","1.0969696","-7.5766296","7.163208"
"3110681","1.2207489","-7.2362366","7.715454"
"3110701","1.6206512","-6.7173157","8.07251"
"3110721","2.632309","-6.3888245","8.45813"
"3110741","2.9679413","-6.572113","9.1484375"
"3110761","2.972702","-6.9267883","9.393616"
"3110781","3.1060028","-6.9267883","9.953003"
"3110801","2.8489227","-6.6459045","10.329102"
"3110821","2.6489716","-5.765167","10.200562"
"3110841","2.2276459","-5.365265","9.112732"
"3110861","1.8015594","-5.160553","8.4747925"
"3110882","1.3421478","-5.4271545","8.193909"
"3110902","1.2350311","-5.615204","8.272461"
"3110922","0.76371765","-5.674713","7.3250732"
"3110942","0.5304413","-5.5247498","6.5490723"
"3110962","0.3899994","-5.8818054","6.1729736"
"3110982","0.19718933","-6.5316467","6.5300293"
"3111002","0.22099304","-6.950592","6.818054"
"3111022","0.5970917","-7.124359","6.9346924"
"3111042","0.5304413","-7.2243347","7.5131226"
"3111062","0.637558","-7.367157","7.7106934"
"3111082","0.6208954","-7.360016","7.296509"
"3111102","0.7779999","-7.110077","6.560974"
"3111123","1.1517181","-7.167206","6.560974"
"3111143","1.7039642","-7.102936","7.253662"
"3111163","2.144333","-6.9006042","7.4179077"
"3111183","2.4299774","-6.8506165","7.098938"
"3111203","2.568039","-6.603058","6.91803"
"3111223","2.7632294","-6.315033","6.7299805"
"3111243","2.568039","-6.2293396","6.270569"
"3111263","2.2252655","-6.374542","5.4588623"
"3111283","1.9467621","-6.557831","5.2803345"
"3111303","1.5659027","-6.6149597","5.706421"
"3111323","1.8039398","-6.1698303","6.4229126"
"3111343","1.7158661","-5.5152283","6.630005"
"3111363","1.7015839","-5.160553","6.875183"
"3111383","1.6515961","-5.103424","7.11084"
"3111403","1.4611664","-5.486664","6.9156494"
"3111423","1.4635468","-5.8318176","6.418152"
"3111444","1.6373138","-6.0222473","6.272949"
"3111464","2.2181244","-6.03891","6.7490234"
"3111484","2.2633514","-6.2864685","7.394104"
"3111504","2.529953","-6.1436462","7.8606567"
"3111524","2.337143","-6.2031555","7.5440674"
"3111544","2.3918915","-6.1722107","6.8585205"
"3111564","2.1229095","-6.1269836","5.9087524"
"3111584","1.9991302","-6.457855","5.3755493"
"3111604","2.1038666","-6.4530945","5.6064453"
"3111624","2.356186","-6.307892","6.1729736"
"3111644","2.6156464","-5.9841614","6.5109863"
"3111664","2.7370453","-6.0746155","6.8585205"
"3111684","2.7465668","-6.072235","7.541687"
"3111704","2.4037933","-6.3245544","7.298889"
"3111724","1.9919891","-6.4673767","6.675232"
"3111745","1.8872528","-6.1912537","6.6799927"
"3111765","1.8063202","-5.693756","6.8775635"
"3111785","1.8991547","-5.127228","7.265564"
"3111805","2.2752533","-4.75589","7.727356"
"3111825","2.4775848","-5.001068","7.7035522"
"3111845","2.465683","-5.455719","7.2489014"
"3111865","2.2038422","-5.9341736","7.151306"
"3111885","2.094345","-6.0412903","7.4345703"
"3111905","2.113388","-5.629486","7.7321167"
"3111925","2.3704681","-5.1391296","7.6202393"
"3111945","2.1348114","-4.858246","7.6273804"
"3111965","2.0205536","-4.6749573","7.803528"
"3111985","1.8920135","-4.653534","7.7059326"
"3112005","2.0586395","-4.6202087","7.3060303"
"3112025","2.4752045","-4.724945","7.2036743"
"3112045","3.048874","-4.853485","7.265564"
"3112066","3.2821503","-5.296234","7.4226685"
"3112086","3.6772919","-5.403351","8.141541"
"3112106","3.7153778","-5.569977","7.9558716"
"3112126","3.267868","-5.9198914","6.618103"
"3112146","2.9393768","-6.303131","5.4231567"
"3112166","2.5251923","-6.443573","4.6852417"
"3112186","2.4156952","-6.329315","4.823303"
"3112206","2.556137","-5.9651184","5.5897827"
"3112226","2.8917694","-5.6699524","6.5966797"
"3112246","2.8370209","-5.8508606","7.0941772"
"3112266","2.7965546","-6.3888245","7.0560913"
"3112286","2.6632538","-6.776825","7.065613"
"3112306","2.613266","-7.2243347","7.17749"
"3112326","2.2847748","-7.5052185","7.465515"
"3112346","2.272873","-7.590912","7.4226685"
"3112367","2.0657806","-7.757538","6.7252197"
"3112387","1.7777557","-7.8765564","6.1134644"
"3112407","1.7801361","-7.798004","6.0039673"
"3112427","2.1681366","-7.6266174","6.815674"
"3112447","2.375229","-7.488556","7.4226685"
"3112467","2.9155731","-7.105316","7.463135"
"3112487","3.3535614","-7.045807","6.9108887"
"3112507","3.7344208","-6.9077454","5.9873047"
"3112527","3.7701263","-6.7863464","5.565979"
"3112547","3.8177338","-6.7673035","5.739746"
"3112567","3.2535858","-6.712555","6.042053"
"3112588","3.017929","-6.091278","6.520508"
"3112608","3.0393524","-5.417633","5.808777"
"3112628","3.267868","-5.084381","5.142273"
"3112648","3.3464203","-5.4723816","5.020874"
"3112668","3.608261","-5.7675476","5.3707886"
"3112688","3.7653656","-6.186493","6.444336"
"3112708","4.0605316","-6.4269104","7.3988647"
"3112728","3.9819794","-6.412628","7.791626"
"3112748","3.6868134","-6.436432","7.5964355"
"3112768","3.3797455","-6.0365295","7.232239"
"3112788","2.8608246","-5.629486","6.47052"
"3112809","2.4752045","-5.4009705","5.899231"
"3112829","2.3109589","-5.3747864","5.5683594"
"3112849","2.144333","-5.512848","5.3184204"
"3112869","2.1038666","-5.981781","5.2160645"
"3112889","2.2395477","-6.0698547","5.899231"
"3112909","2.196701","-6.2531433","6.168213"
"3112929","2.0705414","-5.988922","6.225342"
"3112949","2.1014862","-5.712799","6.2872314"
"3112970","2.041977","-5.4795227","5.489807"
"3112990","2.3799896","-5.7104187","4.8756714"
"3113010","2.5799408","-5.8889465","4.3686523"
"3113030","2.7822723","-6.0246277","3.77594"
"3113050","3.1940765","-6.474518","4.192505"
"3113070","3.9248505","-6.8006287","3.783081"
"3113090","4.7841644","-7.8051453","4.0425415"
"3113111","4.6675262","-7.8265686","2.4143677"
"3113131","4.827011","-8.057465","1.7502441"
"3113151","4.6508636","-7.695648","1.9906616"
"3113171","5.095993","-6.0103455","2.2382202"
"3113191","1.7134857","-4.101288","1.2313232"
"3113211","7.052658","-6.624481","0.45770264"
"3113231","7.4216156","-8.41452","10.029175"
"3113251","5.3102264","-7.298126","1.4098511"
"3113270","5.384018","-8.126495","2.7261963"
"3113291","7.2859344","-9.88559","1.7764282"
"3113311","7.9072113","-8.683502","2.2144165"
"3113331","6.9717255","-7.1838684","0.20300293"
"3113351","6.4599457","-6.046051","-1.7941284"
"3113371","7.650131","-7.464752","-4.6624756"
"3113391","9.785324","-9.014374","-3.8555298"
"3113413","12.532272","-8.088409","-1.2990112"
"3113431","15.33873","-8.183624","-2.9367065"
"3113451","12.346603","-9.511871","-8.609131"
"3113472","13.529648","-9.083405","-8.009277"
"3113491","8.626083","-7.650421","-1.7393799"
"3113512","8.454697","-5.512848","-1.875061"
"3113531","13.248764","-2.620697","-2.760559"
"3113551","14.241379","-1.7447205","-7.659363"
"3113572","13.263046","-0.88064575","-6.5858154"
"3113591","11.420639","-2.2517395","-4.9005127"
"3113612","9.773422","-4.4726257","-3.574646"
"3113631","9.687729","-4.834442","0.7219238"
"3113651","10.170944","-3.1253357","2.326294"
"3113673","9.613937","-1.8423157","1.255127"
"3113692","8.288071","-2.204132","0.16729736"
"3113712","6.993149","-3.1800842","-0.17071533"
"3113732","5.212631","-1.8066101","1.7907104"
"3113753","4.786545","-0.8425598","2.1501465"
"3113772","5.2840424","-0.23556519","1.7216797"
"3113792","6.35997","0.21432495","3.2546387"
"3113812","6.538498","-0.06893921","4.1829834"
"3113832","5.838669","-0.36886597","5.50885"
"3113852","4.222397","-0.54263306","6.6419067"
"3113872","4.9269867","0.99746704","5.0303955"
"3113892","7.6572723","2.946991","3.7069092"
"3113913","7.6334686","3.139801","3.6569214"
"3113932","8.061935","3.037445","4.040161"
"3113952","7.9072113","2.5518494","5.57312"
"3113972","8.230942","2.2400208","6.53479"
"3113992","8.095261","2.132904","7.758301"
"3114012","7.166916","1.7806091","7.106079"
"3114032","6.5861053","1.580658","7.220337"
"3114052","5.905319","1.6044617","5.551697"
"3114072","4.6960907","1.4854431","4.970886"
"3114092","4.0914764","1.6235046","4.2662964"
"3114112","4.255722","2.4233093","3.9282837"
"3114132","2.7894135","3.0255432","4.3757935"
"3114152","2.6941986","3.6230164","4.9328003"
"3114173","3.979599","4.9274597","6.3515015"
"3114195","3.7439423","5.12265","6.85376"
"3114213","1.2207489","3.3754578","6.3467407"
"3114234","-1.0406036","2.2709656","5.6135864"
"3114253","-2.4902496","1.561615","3.8806763"
"3114273","0.016281128","0.7713318","2.94281"
"3114295","1.5468597","-0.02609253","3.930664"
"3114314","0.3400116","-1.2638855","4.80188"
"3114333","-1.1929474","-4.713043","3.9330444"
"3114353","-0.31697083","-8.897736","3.6426392"
"3114375","3.6820526","-8.86441","4.61145"
"3114393","9.078354","-8.783478","5.7992554"
"3114414","10.168564","-10.523529","5.7944946"
"3114434","9.497299","-12.661102","4.147278"
"3114454","13.591537","-12.220734","-1.2514038"
"3114475","16.378952","-11.035309","-2.5748901"
"3114494","14.196152","-12.480194","0.026855469"
"3114514","13.4249115","-12.673004","1.0837402"
"3114535","16.381332","-12.482574","-1.9464722"
"3114554","19.260986","-10.430695","-5.9502563"
"3114574","19.209213","-9.061981","-8.359192"
"3114596","14.486557","-9.526154","-7.2094727"
"3114615","9.735336","-8.369293","-4.8410034"
"3114634","10.899338","-6.3840637","-10.706238"
"3114654","6.68132","-3.172943","-12.598633"
"3114676","11.703903","-7.290985","-19.57074"
"3114694","9.366379","-8.116974","-10.901428"
"3114715","3.0274506","-11.985077","0.11968994"
"3114734","3.305954","-13.065765","13.65686"
"3114755","7.2097626","-12.027924","17.979614"
"3114776","8.749863","-11.266205","11.707336"
"3114795","9.430649","-9.590424","7.8201904"
"3114815","10.309006","-8.535919","5.1708374"
"3114835","9.18071","-7.943207","3.0927734"
"3114856","12.19426","-5.9770203","-10.489624"
"3114875","9.168808","-2.223175","-11.367981"
"3114895","3.9105682","-8.271698","-2.0107422"
"3114915","8.302353","-8.60733","0.5100708"
"3114935","7.507309","-8.15506","2.5881348"
"3114955","6.950302","-8.738251","-0.0040893555"
"3114975","7.3121185","-9.347626","2.6952515"
"3114996","6.140976","-9.278595","1.5431519"
"3115015","4.255722","-8.831085","-0.46350098"
"3115035","4.312851","-7.7480164","0.71240234"
"3115055","6.7670135","-6.3769226","0.7647705"
"3115076","5.9910126","-7.340973","3.1998901"
"3115096","8.033371","-7.400482","2.7166748"
"3115116","2.003891","-4.982025","-4.524414"
"3115135","9.533005","-6.262665","11.083679"
"3115155","-0.42170715","-4.9487","-11.137085"
"3115176","-2.0189362","-4.453583","-1.0228882"
"3115196","5.5411224","-4.0227356","1.5479126"
"3115216","3.9962616","-4.660675","2.473877"
"3115236","9.578232","-2.6230774","12.138184"
"3115256","6.2076263","-4.9391785","-0.5206299"
"3115276","4.767502","-6.6197205","-0.56347656"
"3115296","5.9267426","-6.526886","0.5838623"
"3115316","4.929367","-6.6839905","0.25775146"
"3115336","6.2909393","-8.22171","1.7597656"
"3115356","6.333786","-8.138397","0.18157959"
"3115376","6.7360687","-8.809662","1.9906616"
"3115396","7.185959","-9.964142","2.3167725"
"3115416","5.1197968","-9.223846","1.0623169"
"3115436","4.505661","-8.783478","2.0263672"
"3115456","2.3514252","-8.978668","1.6217041"
"3115477","-4.332657","-9.445221","0.29345703"
"3115497","-1.4119415","-7.5195007","1.4526978"
"3115517","-2.0165558","-5.943695","0.65289307"
"3115537","19.260986","-1.5733337","3.3879395"
"3115557","9.492538","-9.792755","-0.5372925"
"3115577","6.7908173","-8.612091","-1.4870605"
"3115597","9.37114","-6.4150085","0.21966553"
"3115617","5.8862762","-8.438324","2.4524536"
"3115637","-4.1446075","-10.137909","-2.2035522"
"3115657","0.96842957","-7.348114","1.1789551"
"3115677","6.4075775","-5.65567","-0.6087036"
"3115697","8.60466","-7.8527527","-0.65631104"
"3115717","1.1302948","-5.58902","2.6904907"
"3115737","2.9798431","-7.1838684","3.1594238"
"3115757","1.9229584","-7.6980286","-2.3320923"
"3115777","2.151474","-8.366913","-1.5037231"
"3115797","1.5301971","-9.150055","-1.3394775"
"3115817","0.2900238","-7.2433777","-4.1673584"
"3115837","2.7727509","-8.916779","2.5809937"
"3115858","2.7727509","-9.421417","0.42913818"
"3115877","4.043869","-11.063873","1.0194702"
"3115898","9.778183","-9.599945","-3.5794067"
"3115917","2.2038422","-7.1791077","2.973755"
"3115938","4.4818573","-14.065521","-0.1159668"
"3115958","6.4980316","-14.101227","-1.0823975"
"3115978","2.9869843","-12.544464","1.0075684"
"3115998","8.590378","-6.8648987","-0.3135376"
"3116018","-3.620926","-8.545441","-5.3361206"
"3116038","3.434494","-6.3364563","-15.526489"
"3116058","6.6456146","-7.559967","2.7666626"
"3116078","1.7039642","-8.34787","-4.0840454"
"3116098","3.4178314","-9.871307","-0.24450684"
"3116118","2.1943207","-9.745148","-0.5444336"
"3116138","1.6753998","-10.266449","-0.6586914"
"3116158","1.4254608","-10.759186","-1.1109619"
"3116179","1.080307","-9.914154","-0.4706421"
"3116199","1.2754974","-9.169098","-0.8086548"
"3116219","1.6753998","-8.738251","-0.74438477"
"3116239","2.0967255","-9.802277","-0.62060547"
"3116259","2.3514252","-8.9263","-0.7324829"
"3116279","2.2895355","-8.400238","-0.31115723"
"3116299","2.5966034","0.4499817","-0.5349121"
"3116319","2.106247","-7.7480164","-0.29449463"
"3116339","2.4061737","-11.787506","-0.9538574"
"3116359","2.3395233","-9.699921","-0.49682617"
"3116379","1.5325775","-7.464752","0.16253662"
"3116399","3.3202362","-2.70401","0.7219238"
"3116419","1.689682","-10.4664","-1.1442871"
"3116439","10.761276","-7.398102","1.6264648"
"3116459","-4.6587677","-15.881744","-3.6746216"
"3116479","4.274765","-9.764191","-0.5991821"
"3116499","5.4649506","-11.016266","-0.49682617"
"3116519","0.51615906","-11.582794","0.3862915"
"3116540","1.1064911","-10.604462","-0.28259277"
"3116560","1.2231293","-10.106964","0.107788086"
"3116579","0.81370544","-10.33786","0.19348145"
"3116600","0.32572937","-10.126007","0.25775146"
"3116620","0.85417175","-9.685638","0.45056152"
"3116640","0.97080994","-9.009613","0.49578857"
"3116660","0.8993988","-8.9263","0.1482544"
"3116679","0.59947205","-9.083405","0.20300293"
"3116700","0.7756195","-9.44046","0.024475098"
"3116720","0.73039246","-9.6475525","0.56243896"
"3116740","0.56614685","-10.473541","-0.34210205"
"3116760","0.13291931","-9.904633","-0.3206787"
"3116780","0.5947113","-10.461639","-0.07788086"
"3116800","0.04246521","-10.613983","-1.617981"
"3116820","0.47331238","-10.585419","-1.3989868"
"3116840","0.35905457","-9.261932","-0.97528076"
"3116860","0.6708832","-8.92868","-1.9678955"
"3116880","2.9703217","-9.961761","0.41723633"
"3116901","0.9184418","-8.131256","-1.2133179"
"3116921","0.0019989014","-9.157196","-2.117859"
"3116941","0.7613373","-8.776337","-1.5656128"
"3116961","1.1374359","-9.835602","-1.6060791"
"3116980","0.10673523","-10.035553","-1.8203125"
"3117001","3.812973","-8.243134","-9.463684"
"3117021","1.4492645","-9.818939","-4.3149414"
"3117041","0.8160858","-9.407135","-1.4632568"
"3117061","0.8922577","-10.116486","-0.35876465"
"3117081","0.996994","-9.787994","-0.48254395"
"3117101","0.04484558","-10.361664","-0.8134155"
"3117121","0.08769226","-10.006989","-0.05407715"
"3117141","-0.04798889","-9.816559","0.12683105"
"3117162","-0.25032043","-9.702301","0.11016846"
"3117181","-0.15034485","-9.573761","0.24584961"
"3117202","-0.09559631","-9.599945","0.1482544"
"3117222","0.20909119","-9.321442","0.3363037"
"3117242","0.9422455","-8.600189","1.0813599"
"3117262","1.1731415","-10.406891","0.48388672"
"3117281","1.1350555","-10.225983","0.710022"
"3117302","0.4875946","-10.121246","0.4100952"
"3117322","-0.2931671","-10.873444","0.5576782"
"3117342","-1.3286285","-10.882965","-0.025512695"
"3117362","-2.4045563","-9.971283","-0.40637207"
"3117382","-2.9425201","-9.738007","-0.5039673"
"3117402","-3.2829132","-9.423798","-0.6515503"
"3117422","-3.0210724","-9.350006","-0.9871826"
"3117442","-2.6568756","-9.133392","-1.496582"
"3117462","-2.409317","-8.366913","-1.6060791"
"3117482","-2.8306427","-8.178864","-2.8034058"
"3117502","-1.5761871","-7.8955994","-3.4746704"
"3117522","-2.114151","-8.826324","-2.5653687"
"3117543","0.0019989014","-10.302155","-2.7629395"
"3117563","0.87083435","-10.735382","-2.3320923"
"3117582","1.3159637","-10.394989","-3.1676025"
"3117603","0.075790405","-9.88797","-3.5032349"
"3117623","-1.6047516","-9.316681","-3.139038"
"3117643","-2.287918","-8.457367","-2.3844604"
"3117663","-2.383133","-8.271698","-1.7941284"
"3117682","-2.1498566","-8.690643","-1.5751343"
"3117703","-1.985611","-9.192902","-1.93219"
"3117723","-13.349503","-12.411163","-6.2382813"
"3117743","-1.7475739","-9.723724","-2.0654907"
"3117763","-2.1641388","-9.419037","-1.2799683"
"3117783","-2.3022003","-9.395233","-1.5822754"
"3117803","-2.7021027","-9.009613","-1.0443115"
"3117823","-2.6473541","-9.31192","-1.7369995"
"3117843","-2.6306915","-9.307159","-1.7988892"
"3117864","-2.5473785","-9.604706","-1.4584961"
"3117883","-2.6354523","-9.764191","-1.3775635"
"3117904","-2.499771","-9.764191","-1.4537354"
"3117924","-2.140335","-9.926056","-2.0559692"
"3117944","-1.4809723","-9.82132","-2.234497"
"3117964","-0.83351135","-9.516632","-2.4058838"
"3117984","-0.31697083","-9.495209","-2.8224487"
"3118004","-0.04798889","-9.449982","-3.1152344"
"3118024","-0.02180481","-9.164337","-3.2104492"
"3118044","0.1591034","-9.1214905","-3.779358"
"3118064","-0.06465149","-9.24765","-3.2318726"
"3118085","-0.26460266","-9.457123","-3.105713"
"3118104","0.4637909","-9.545197","-3.3032837"
"3118124","-0.4169464","-9.011993","-2.7557983"
"3118144","-1.2595978","-8.697784","-2.0464478"
"3118164","-1.9403839","-8.278839","-1.7250977"
"3118185","-1.6999664","-8.550201","-2.465393"
"3118205","-2.29982","-8.819183","-2.9557495"
"3118225","-2.8377838","-8.73587","-2.208313"
"3118245","-2.345047","-8.528778","-0.4206543"
"3118265","-0.812088","-9.078644","0.17443848"
"3118285","-1.3809967","-9.383331","-0.91101074"
"3118305","-2.2736359","-9.328583","-1.4918213"
"3118325","-2.7211456","-9.140533","-1.368042"
"3118345","-2.5140533","-9.221466","-1.5108643"
"3118365","-1.7880402","-9.171478","-1.746521"
"3118385","-1.6380768","-9.078644","-1.368042"
"3118405","-2.023697","-9.452362","-0.8800659"
"3118425","-2.5045319","-12.511139","-3.0438232"
"3118447","-1.7332916","-12.875336","-1.4275513"
"3118465","-0.23127747","-10.602081","1.1789551"
"3118485","-0.91444397","-7.5837708","0.4029541"
"3118505","-0.85731506","-8.840607","0.44104004"
"3118526","1.4825897","-9.747528","-0.24212646"
"3118546","3.6415863","-10.802032","-0.68725586"
"3118566","3.851059","-11.668488","-1.1323853"
"3118586","2.0443573","-11.166229","0.20300293"
"3118606","1.2493134","-9.385712","0.18634033"
"3118626","1.4706879","-8.595428","-0.79437256"
"3118646","1.3183441","-8.950104","-1.2466431"
"3118666","1.6373138","-8.740631","-0.5444336"
"3118685","2.8203583","-8.352631","-0.4944458"
"3118706","3.2059784","-8.521637","-1.5703735"
"3118726","2.8584442","-9.197662","-2.4487305"
"3118746","2.5823212","-10.030792","-2.7629395"
"3118766","2.4752045","-10.2117","-2.4368286"
"3118786","2.1086273","-9.868927","-1.9036255"
"3118806","1.3849945","-9.190521","-1.4394531"
"3118826","0.9898529","-8.750153","-1.9274292"
"3118846","0.92796326","-8.521637","-1.3632813"
"3118866","0.5851898","-8.85965","-2.1845093"
"3118886","0.92796326","-9.316681","-0.32305908"
"3118907","1.1707611","-9.607086","-1.3632813"
"3118927","0.6280365","-9.797516","-1.1062012"
"3118947","0.3899994","-9.642792","0.22918701"
"3118967","-0.24555969","-9.699921","0.5195923"
"3118986","-0.7811432","-11.249542","-0.5111084"
"3119007","-0.10987854","-12.523041","-0.84436035"
"3119027","3.158371","-11.970795","0.2625122"
"3119047","3.9105682","-11.601837","1.6478882"
"3119067","1.22789","-15.1128845","3.1975098"
"3119087","-3.140091","-18.22165","2.0715942"
"3119107","-3.3852692","-15.141449","-0.4611206"
"3119127","0.51615906","-11.459015","-1.0062256"
"3119147","2.337143","-10.804413","-3.2651978"
"3119167","2.06102","-12.665863","-3.869812"
"3119187","3.101242","-12.154083","1.3074951"
"3119207","1.7848969","-10.006989","1.3408203"
"3119228","-0.036087036","-10.254547","-1.4608765"
"3119248","-3.3924103","-12.446869","-5.4694214"
"3119268","-2.0594025","-10.111725","2.7595215"
"3119288","3.370224","-8.571625","4.3638916"
"3119308","3.3035736","-10.0903015","-1.6941528"
"3119328","-1.0525055","-10.128387","-6.930969"
"3119348","-2.2188873","-9.618988","-2.2297363"
"3119368","0.58280945","-10.309296","-1.1228638"
"3119388","2.5585175","-9.316681","-1.4846802"
"3119408","2.3228607","-8.73349","-2.991455"
"3119428","1.6325531","-8.3454895","-0.6658325"
"3119448","-0.25746155","-8.942963","-4.5220337"
"3119468","0.27574158","-8.107452","-1.3585205"
"3119488","-0.9192047","-6.243622","-3.998352"
"3119508","-0.959671","-5.9841614","-2.3773193"
"3119528","-1.4167023","-4.455963","-0.73724365"
"3119548","-1.5595245","-4.570221","-1.1918945"
"3119568","-1.652359","-3.6180725","-2.3773193"
"3119588","-1.947525","-2.9468079","-3.6270142"
"3119609","-2.1569977","-3.5657043","-4.760071"
"3119629","-2.3664703","-4.2798157","-5.519409"
"3119649","-2.2022247","-5.0296326","-5.417053"
"3119669","-2.2498322","-6.1698303","-7.19281"
"3119689","-1.5404816","-8.064606","-10.615784"
"3119709","-2.306961","-8.147919","-7.2785034"
"3119730","-1.485733","-9.792755","-12.467712"
"3119749","3.0417328","-13.910797","-5.4956055"
"3119769","-4.4921417","-19.51419","-3.4960938"
"3119789","-0.8287506","-8.116974","-0.08502197"
"3119809","0.54948425","-5.039154","-4.119751"
"3119829","1.6658783","-5.905609","-3.6055908"
"3119849","2.946518","-8.200287","-1.1395264"
"3119869","-0.6502228","-10.59256","-2.4677734"
"3119889","-3.7089996","-10.359283","-1.7560425"
"3119909","-3.3828888","-10.366425","-1.8917236"
"3119929","-2.390274","-9.82608","-2.227356"
"3119949","-1.7499542","-8.916779","-2.8343506"
"3119969","-0.038467407","-8.445465","-3.3723145"
"3119990","0.77085876","-8.995331","-3.4699097"
"3120010","0.996994","-9.002472","-2.612976"
"3120030","0.7446747","-9.197662","-1.9155273"
"3120049","0.24241638","-9.545197","-2.4320679"
"3120070","-0.25032043","-8.826324","-2.5510864"
"3120090","-0.2288971","-8.316925","-2.5177612"
"3120110","-0.0884552","-8.34787","-2.7819824"
"3120130","0.15672302","-8.619232","-2.208313"
"3120149","0.22813416","-8.969147","-2.0107422"
"3120170","0.33287048","-8.716827","-1.8155518"
"3120190","-0.04084778","-8.685883","-1.5465698"
"3120210","-0.4931183","-9.138153","-1.5394287"
"3120230","-0.56214905","-9.366669","-1.6060791"
"3120250","-1.0644073","-9.728485","-1.5037231"
"3120270","-1.4571686","-9.923676","-1.2728271"
"3120290","-1.3310089","-9.9427185","-1.1300049"
"3120310","-1.0715485","-9.995087","-0.8991089"
"3120330","-0.8620758","-10.233124","-0.7324829"
"3120350","-0.64308167","-10.283112","-0.56347656"
"3120371","-1.3429108","-9.933197","-0.42303467"
"3120391","-1.523819","-9.659454","-0.45874023"
"3120411","-1.292923","-9.75943","-0.18737793"
"3120431","-1.421463","-9.923676","0.20300293"
"3120451","-1.5666656","-9.623749","0.19110107"
"3120471","-2.3236237","-9.307159","0.31726074"
"3120491","-2.6568756","-9.190521","0.036376953"
"3120511","-2.935379","-8.86441","-1.2109375"
"3120531","-2.9377594","-8.907257","-1.7703247"
"3120551","-2.7711334","-8.895355","-2.2797241"
"3120571","-2.4688263","-9.219086","-3.2675781"
"3120591","-1.8308868","-9.554718","-2.772461"
"3120611","-1.4333649","-9.621368","-2.6724854"
"3120631","-1.0953522","-10.08078","-2.727234"
"3120651","-0.65974426","-9.82132","-2.4415894"
"3120671","-0.34791565","-9.397614","-1.7750854"
"3120691","-0.052749634","-8.873932","-0.85388184"
"3120711","-0.24555969","-8.9263","-0.89434814"
"3120732","-0.70259094","-9.485687","-0.51586914"
"3120754","-0.7644806","-9.609467","-0.7681885"
"3120772","-1.7928009","-9.492828","-1.9845581"
"3120792","-1.8023224","-9.768951","-3.27948"
"3120812","-1.1881866","-9.069122","-2.2106934"
"3120832","-0.7954254","-9.142914","-1.7631836"
"3120852","-0.52882385","-9.37619","-2.2440186"
"3120872","-0.34077454","-9.8784485","-1.958374"
"3120892","-0.097976685","-9.964142","-1.9893188"
"3120912","-0.009902954","-9.576141","-1.6322632"
"3120932","-0.30030823","-9.516632","-1.329956"
"3120952","-0.57167053","-9.69754","-1.1038208"
"3120972","-0.7382965","-10.01651","-0.93481445"
"3120992","0.23051453","-10.259308","-0.8086548"
"3121012","0.54948425","-10.059357","-0.88482666"
"3121032","-0.06465149","-9.787994","-1.2037964"
"3121052","-0.5097809","-10.328339","-1.9536133"
"3121072","-0.61213684","-10.20932","-1.9655151"
"3121092","-0.71925354","-9.945099","-2.3273315"
"3121112","-0.95729065","-9.790375","-2.0012207"
"3121133","-0.3193512","-8.957245","-1.2442627"
"3121153","0.19004822","-7.9812927","-1.3656616"
"3121173","1.1850433","-8.3454895","-1.8798218"
"3121193","1.8705902","-9.718964","-1.0752563"
"3121212","2.144333","-11.011505","-0.08502197"
"3121233","1.0255585","-11.259064","0.44818115"
"3121253","0.13291931","-10.366425","0.66955566"
"3121273","-1.3476715","-9.804657","-0.43493652"
"3121293","-1.4143219","-9.219086","-1.2466431"
"3121312","-1.8213654","-8.916779","-1.1728516"
"3121333","-1.818985","-8.842987","-0.7229614"
"3121353","-1.4095612","-9.18338","-0.03503418"
"3121373","-1.0310822","-9.209564","-0.13024902"
"3121393","-1.0191803","-9.599945","-0.6420288"
"3121413","-0.728775","-10.023651","-1.1014404"
"3121433","-0.052749634","-9.973663","-0.73010254"
"3121453","0.051986694","-10.030792","-0.45159912"
"3121473","-0.18367004","-10.004608","-0.5515747"
"3121494","-0.33125305","-9.723724","-0.5349121"
"3121513","-0.51216125","-9.430939","-0.5991821"
"3121534","-0.76924133","-9.131012","0.12683105"
"3121554","-1.7689972","-9.402374","-0.4539795"
"3121574","-1.6618805","-9.88797","-0.33258057"
"3121594","-1.3667145","-9.576141","-0.41827393"
"3121613","-1.9046783","-9.557098","-0.80389404"
"3121634","-1.3905182","-9.464264","-0.97528076"
"3121654","-1.1334381","-9.599945","-0.7848511"
"3121674","-1.1691437","-9.830841","-0.87054443"
"3121694","-1.0548859","-9.778473","-1.0609741"
"3121714","-0.9358673","-9.526154","-1.2728271"
"3121734","-0.6216583","-9.5642395","-1.322815"
"3121754","-0.21937561","-9.523773","-1.368042"
"3121774","-0.08131409","-9.516632","-1.2894897"
"3121794","0.17576599","-9.638031","-0.9038696"
"3121814","-0.07417297","-9.7118225","-0.9467163"
"3121834","-0.369339","-9.766571","-1.0871582"
"3121854","-0.59547424","-9.766571","-0.9395752"
"3121874","-0.8644562","-9.678497","-0.92529297"
"3121895","-0.9263458","-9.542816","-0.74438477"
"3121914","-1.1620026","-9.283356","-0.8634033"
"3121935","-1.3548126","-9.359528","-0.84198"
"3121955","-1.2143707","-9.449982","-0.90625"
"3121975","-1.1881866","-9.385712","-0.8253174"
"3121995","-1.0310822","-9.409515","-0.51586914"
"3122014","-1.0358429","-9.509491","-0.45874023"
"3122035","-0.7978058","-9.880829","-0.6253662"
"3122054","-0.3598175","-10.097443","-1.0109863"
"3122075","-0.13368225","-10.047455","-1.303772"
"3122095","-0.20509338","-10.135529","-1.3894653"
"3122115","-0.11225891","-10.190277","-1.4037476"
"3122135","-0.026565552","-10.152191","-1.2156982"
"3122155","0.10435486","-9.845123","-0.7991333"
"3122175","0.21385193","-9.626129","-0.5777588"
"3122195","0.14958191","-9.642792","0.17443848"
"3122215","-0.49073792","-9.742767","0.32202148"
"3122235","-1.2834015","-9.797516","0.13397217"
"3122255","-1.5666656","-9.923676","-0.26116943"
"3122276","-1.5142975","-9.849884","-0.49206543"
"3122296","-1.3262482","-9.549957","-0.67059326"
"3122315","-0.88349915","-9.533295","-0.6824951"
"3122336","-0.1955719","-9.654694","-0.2468872"
"3122356","0.32572937","-10.004608","0.15063477"
"3122376","0.1829071","-10.095062","0.56243896"
"3122396","-0.895401","-9.8237","0.0982666"
"3122415","-2.1260529","-9.814178","-0.76104736"
"3122436","-2.4402618","-9.714203","-1.3323364"
"3122456","-1.921341","-9.37619","-1.0681152"
"3122476","-1.1024933","-9.519012","-0.94433594"
"3122496","-0.68592834","-9.773712","-0.8062744"
"3122516","-0.5335846","-9.945099","-0.58251953"
"3122536","-0.36457825","-9.816559","-0.67297363"
"3122556","-0.18605042","-9.361908","-0.82055664"
"3122576","-0.24794006","-9.302399","-0.7848511"
"3122596","-0.45741272","-9.216705","-0.7253418"
"3122616","-0.6240387","-9.190521","-0.81103516"
"3122637","-0.6883087","-9.30954","-0.97766113"
"3122657","-0.56214905","-9.521393","-0.86816406"
"3122677","-0.5074005","-9.666595","-0.5349121"
"3122697","-0.85731506","-9.623749","-0.45635986"
"3122717","-1.3786163","-9.664215","-0.48492432"
"3122737","-1.7904205","-9.657074","-0.39208984"
"3122757","-2.0094147","-9.559479","-0.3706665"
"3122777","-1.8261261","-9.573761","-0.48968506"
"3122797","-1.5999908","-9.597565","-0.47302246"
"3122817","-1.3643341","-9.519012","-0.47540283"
"3122837","-1.0310822","-9.611847","-0.56347656"
"3122857","-0.66926575","-9.599945","-0.5253906"
"3122877","1.0303192","-9.569","-3.119995"
"3122897","-0.49073792","-9.837982","-1.322815"
"3122917","-0.3360138","-9.75943","-0.6824951"
"3122937","-0.5573883","-9.849884","-0.65393066"
"3122957","-0.42170715","-9.709442","-1.0514526"
"3122977","-0.5645294","-9.749908","-1.1538086"
"3122997","-0.70973206","-9.807037","-1.3061523"
"3123018","-0.7573395","-9.787994","-1.1704712"
"3123038","-0.82637024","-9.676117","-0.7919922"
"3123058","-1.0382233","-9.718964","-0.6920166"
"3123078","-1.4309845","-9.680878","-1.1419067"
"3123098","-1.4119415","-9.714203","-1.1323853"
"3123118","-1.6095123","-9.723724","-0.8729248"
"3123138","-1.8808746","-9.916534","-1.0038452"
"3123158","-1.6690216","-9.690399","-0.8253174"
"3123178","-0.99061584","-9.409515","-1.1038208"
"3123198","-0.09083557","-9.411896","-1.1633301"
"3123218","-0.18605042","-9.288116","-1.3347168"
"3123238","-1.0501251","-9.290497","-0.8991089"
"3123258","-1.357193","-9.266693","-0.72772217"
"3123278","-1.8118439","-9.497589","-1.0276489"
"3123298","-1.9356232","-9.623749","-0.9490967"
"3123318","-1.4357452","-9.583282","-0.93481445"
"3123338","-1.1286774","-9.485687","-1.1657104"
"3123358","-0.9382477","-9.523773","-1.1728516"
"3123378","-0.9049225","-9.552338","-0.92767334"
"3123398","-0.9715729","-9.407135","-0.7848511"
"3123419","-1.190567","-9.614227","-0.73724365"
"3123439","-1.3857574","-9.735626","-0.8300781"
"3123459","-1.459549","-9.747528","-0.9086304"
"3123479","-1.5857086","-9.716583","-1.1538086"
"3123499","-1.3952789","-9.63089","-0.9490967"
"3123519","-1.2762604","-9.6285095","-1.008606"
"3123539","-1.33815","-9.5642395","-1.1014404"
"3123559","-1.1786652","-9.604706","-1.1538086"
"3123580","-0.895401","-9.535675","-1.0109863"
"3123599","-0.9287262","-9.676117","-1.3585205"
"3123619","-0.8692169","-9.638031","-1.2894897"
"3123639","-0.83351135","-9.516632","-1.1062012"
"3123659","-0.6168976","-9.6285095","-1.303772"
"3123679","-0.5978546","-9.735626","-1.2561646"
"3123699","-0.831131","-9.680878","-1.4156494"
"3123719","-1.0167999","-9.609467","-1.5227661"
"3123739","-1.0215607","-9.457123","-1.3513794"
"3123759","-0.959671","-9.488068","-1.2704468"
"3123780","-0.9525299","-9.483307","-1.2680664"
"3123799","-0.9858551","-9.516632","-1.182373"
"3123819","-0.91444397","-9.523773","-1.3442383"
"3123840","-0.8025665","-9.668976","-1.413269"
"3123860","-0.89064026","-9.640411","-1.4180298"
"3123880","-0.8882599","-9.583282","-1.3323364"
"3123900","-0.8787384","-9.569","-1.3728027"
"3123920","-0.84303284","-9.588043","-1.3823242"
"3123940","-0.6906891","-9.609467","-1.3180542"
"3123960","-0.664505","-9.63089","-1.2752075"
"3123980","-0.71925354","-9.623749","-1.2109375"
"3124000","-0.7121124","-9.7118225","-1.2252197"
"3124020","-0.8049469","-9.721344","-1.2371216"
"3124040","-0.6978302","-9.738007","-1.3156738"
"3124060","-0.79304504","-9.652313","-1.2561646"
"3124080","-0.82398987","-9.545197","-1.1918945"
"3124100","-0.82398987","-9.599945","-1.1323853"
"3124120","-0.812088","-9.595184","-1.1895142"
"3124140","-0.8882599","-9.5642395","-1.1680908"
"3124160","-0.91444397","-9.576141","-1.1847534"
"3124181","-0.9192047","-9.583282","-1.1014404"
"3124201","-0.9620514","-9.578522","-1.0895386"
"3124221","-0.9096832","-9.533295","-1.03479"
"3124241","-0.97395325","-9.516632","-1.0395508"
"3124261","-0.8549347","-9.56662","-1.0324097"
"3124281","-0.831131","-9.533295","-1.0800171"
"3124301","-0.8644562","-9.607086","-1.0800171"
"3124321","-0.8049469","-9.645172","-1.0895386"
"3124341","-0.6716461","-9.580902","-1.1157227"
"3124361","-0.6668854","-9.607086","-1.1204834"
"3124381","-0.66212463","-9.63327","-1.1466675"
"3124401","-0.6549835","-9.688019","-1.2180786"
"3124421","-0.5573883","-9.680878","-1.1300049"
"3124441","-0.5002594","-9.595184","-1.091919"
"3124461","-0.6573639","-9.702301","-1.1442871"
"3124481","-0.6216583","-9.638031","-1.008606"
"3124501","-0.7573395","-9.561859","-0.90148926"
"3124521","-0.9763336","-9.828461","-1.387085"
"3124542","-1.1096344","-10.304535","-1.8679199"
"3124562","-0.65260315","-11.159088","-2.6463013"
"3124581","-0.27412415","-11.04483","-2.8153076"
"3124602","0.40190125","-10.954376","-6.6500854"
"3124622","0.37095642","-9.861786","-0.96099854"
"3124642","-0.04084778","-8.228851","1.2027588"
"3124662","-0.14082336","-4.7344666","-1.6251221"
"3124681","-2.2760162","-4.6582947","-5.3623047"
"3124702","-4.3421783","-7.32193","-12.777161"
"3124722","0.62327576","-11.132904","-6.2216187"
"3124742","3.805832","-15.393768","-3.2723389"
"3124762","3.27977","-18.926239","-5.307556"
"3124782","0.618515","-15.5961","-5.1123657"
"3124802","-0.6716461","-12.1493225","-3.972168"
"3124822","0.13053894","-10.447357","-3.048584"
"3124842","-0.14320374","-8.28598","-1.9226685"
"3124863","-1.1120148","-5.179596","-1.5037231"
"3124882","-1.9237213","-2.0517883","0.21014404"
"3124902","0.23051453","0.38809204","0.4267578"
"3124922","3.1559906","0.9784241","0.68859863"
"3124943","4.3604584","1.183136","2.4476929"
"3124963","2.1847992","2.799408","3.2546387"
"3124983","-1.1191559","4.3609314","1.0123291"
"3125003","-7.6032867","1.3592834","-6.9262085"
"3125023","-4.185074","-9.478546","-10.196838"
"3125043","-19.738419","-19.51419","19.262634"
"3125063","16.467026","-19.51419","-16.071594"
"3125083","5.860092","-12.513519","-1.9750366"
"3125103","13.22258","-14.558258","-0.45635986"
"3125123","5.8243866","-11.93985","0.85998535"
"3125143","-2.5735626","-16.572052","-1.727478"
"3125163","-5.527603","-11.542328","-2.855774"
"3125183","-4.1565094","-6.93869","-1.1109619"
"3125203","-7.586624","0.407135","-4.3530273"
"3125223","-3.5804596","3.9467468","-5.678894"
"3125243","5.879135","4.6251526","19.262634"
"3125263","-2.6568756","3.5658875","-8.573425"
"3125283","6.7075043","-0.1927185","0.005432129"
"3125303","6.8765106","-6.250763","-5.626526"
"3125323","-1.3857574","-14.710602","-10.358704"
"3125343","-3.2091217","-19.51419","-6.519165"
"3125364","2.344284","-19.51419","-12.343933"
"3125384","-0.3026886","-10.459259","-6.3549194"
"3125404","-0.94062805","-5.1438904","-1.6774902"
"3125424","-2.549759","-1.8684998","-0.020751953"
"3125444","0.06864929","-0.30221558","-0.1897583"
"3125464","4.0272064","1.3545227","-1.2704468"
"3125484","5.441147","2.6661072","1.2313232"
"3125504","3.66539","7.462555","8.993713"
"3125524","-1.5952301","4.327606","5.7564087"
"3125544","-5.482376","-0.13796997","1.6169434"
"3125564","-12.849625","-3.5419006","-19.73677"
"3125584","-19.738419","-19.51419","-8.863831"
"3125604","8.057175","-19.51419","-19.73677"
"3125624","12.489426","-15.434235","3.2927246"
"3125644","19.260986","-15.79129","5.951599"
"3125664","13.984299","-3.3800354","-0.94195557"
"3125684","-7.2938385","-7.598053","-1.6870117"
"3125705","-5.4728546","-15.186676","4.3829346"
"3125724","-4.60878","-11.061493","-3.779358"
"3125744","-5.9417877","-3.9537048","-6.0288086"
"3125765","-9.457596","1.6306458","-8.744812"
"3125785","-0.85969543","1.875824","19.262634"
"3125805","3.5987396","1.2712097","7.291748"
"3125825","10.647018","-0.43789673","-1.0419312"
"3125844","4.11528","-10.994843","-11.522705"
"3125865","-13.030533","-19.51419","-10.944275"
"3125885","7.5620575","-19.51419","-9.1828"
"3125905","3.3416595","-13.525177","-5.959778"
"3125925","0.40904236","-5.046295","-3.9412231"
"3125944","-0.19081116","-4.8939514","-4.1435547"
"3125965","0.93510437","-1.8304138","-4.741028"
"3125985","1.3373871","1.1783752","-3.305664"
"3126005","2.2490692","3.5349426","-1.6346436"
"3126025","3.165512","4.4656677","1.5098267"
"3126045","5.1102753","3.6087341","12.933228"
"3126065","3.0464935","2.2876282","5.9158936"
"3126085","-4.3636017","0.46188354","-1.7489014"
"3126105","-6.8439484","-5.386688","-14.745728"
"3126125","-19.738419","-19.51419","2.1001587"
"3126145","-8.462601","-19.51419","-13.407959"
"3126166","5.198349","-19.159515","-5.9383545"
"3126185","18.085678","-17.064789","2.5286255"
"3126206","10.339951","-7.712311","0.23632813"
"3126226","-4.665909","-9.104828","2.0144653"
"3126245","-0.4835968","-11.799408","1.5883789"
"3126266","-2.223648","-9.0381775","-0.97766113"
"3126286","-3.6042633","-3.5133362","-3.5413208"
"3126306","-4.308853","1.7782288","-7.12854"
"3126326","17.65483","-0.8687439","19.262634"
"3126345","-1.3595734","-0.28793335","0.7719116"
"3126366","3.8201141","1.6687317","1.909729"
"3126386","4.2581024","-2.972992","-4.453003"
"3126407","-0.3026886","-10.092682","-9.849304"
"3126427","2.7299042","-19.51419","-6.719116"
"3126447","7.0478973","-19.51419","-8.60199"
"3126467","1.2683563","-10.252167","-6.216858"
"3126487","0.42808533","-4.763031","-6.321594"
"3126507","-1.08107","-3.9537048","-0.5111084"
"3126527","1.856308","-1.7494812","-5.2123413"
"3126547","-0.7311554","2.1924133","-5.14093"
"3126567","1.939621","2.1733704","-2.1035767"
"3126588","5.1935883","2.4423523","2.8737793"
"3126607","7.3240204","3.5492249","11.455017"
"3126627","3.7439423","1.0450745","5.4921875"
"3126647","-4.211258","1.3330994","-5.857422"
"3126667","-7.393814","-6.962494","-10.701477"
"3126687","-19.738419","-19.51419","19.262634"
"3126707","16.062363","-19.51419","-19.73677"
"3126727","4.7579803","-19.51419","-1.6965332"
"3126748","17.631027","-16.134064","-1.2752075"
"3126767","9.411606","-10.295013","-1.6751099"
"3126787","0.075790405","-11.413788","1.5003052"
"3126807","0.6851654","-7.0553284","-1.6703491"
"3126829","-2.5592804","-4.403595","-3.5270386"
"3126848","-4.770645","0.09768677","-2.0250244"
"3126867","-3.8232574","1.9734192","-3.1176147"
"3126889","-2.4331207","-0.20700073","-0.527771"
"3126908","-2.1831818","-1.1424866","-0.64678955"
"3126928","0.38761902","3.1612244","-4.3744507"
"3126948","5.7720184","-4.4773865","-9.042358"
"3126968","-2.5616608","-15.139069","-6.864319"
"3126988","2.2776337","-19.51419","-7.8426514"
"3127009","6.0552826","-19.51419","-6.961914"
"3127028","1.9919891","-8.264557","-7.8569336"
"3127048","-1.9760895","-4.377411","-7.507019"
"3127069","-4.256485","-3.2538757","-6.7905273"
"3127088","-1.1524811","-2.5540466","-0.8657837"
"3127108","2.18956","-0.349823","1.8835449"
"3127129","6.514694","2.568512","3.9973145"
"3127149","7.7358246","4.7013245","9.55072"
"3127168","4.5270844","3.6087341","3.9211426"
"3127189","0.11387634","3.9895935","-2.9771729"
"3127208","-9.093399","-3.0539246","-15.995422"
"3127228","-11.871292","-19.51419","-16.23822"
"3127249","-19.738419","-19.51419","6.675232"
"3127269","5.5339813","-19.51419","-8.485352"
"3127289","14.924545","-19.51419","4.759033"
"3127309","10.425644","-12.396881","-2.2940063"
"3127329","1.689682","-8.516876","2.5095825"
"3127349","0.13529968","-9.37619","-1.3275757"
"3127370","-1.0144196","-7.1386414","1.8097534"
"3127389","-3.3043365","-1.5447693","-0.97766113"
"3127409","-4.3683624","1.6687317","-1.7393799"
"3127430","-3.3828888","-1.7685242","1.4765015"
"3127450","-1.9356232","-0.51168823","-6.9071655"
"3127469","1.8991547","-2.0232239","1.300354"
"3127490","6.662277","1.4616394","1.3670044"
"3127509","8.816513","-7.329071","-10.149231"
"3127529","-4.9348907","-19.51419","-8.211609"
"3127549","8.461838","-19.51419","-7.5855713"
"3127569","2.3347626","-16.919586","-9.799316"
"3127591","-0.57881165","-7.5813904","-9.896912"
"3127609","-1.569046","-3.979889","-2.4415894"
"3127629","7.243088","-3.7656555","2.416748"
"3127650","0.116256714","-1.5019226","-5.293274"
"3127670","0.07102966","0.9927063","0.77905273"
"3127690","3.9486542","3.9467468","5.3374634"
"3127711","3.953415","7.179291","7.905884"
"3127730","2.6013641","5.884369","3.4902954"
"3127750","-1.3095856","0.29525757","-0.29925537"
"3127770","-5.9846344","-7.2886047","-12.9366455"
"3127790","-19.607498","-19.51419","-9.037598"
"3127811","-14.556351","-19.51419","-7.1690063"
"3127830","9.228317","-19.51419","-9.473206"
"3127851","19.25206","-18.6763","-0.1897583"
"3127870","9.582993","-10.27359","-0.95147705"
"3127890","-0.4098053","-7.9622498","2.5143433"
"3127911","-0.29792786","-9.709442","-0.17071533"
"3127930","-2.890152","-5.8770447","-3.3151855"
"3127950","-3.1972198","0.14529419","-4.5410767"
"3127970","0.6280365","4.165741","-19.73677"
"3127990","-9.4171295","1.2545471","-6.2525635"
"3128010","-1.2238922","-1.1877136","6.522888"
"3128030","5.5934906","1.0522156","2.5905151"
"3128050","7.976242","-1.8661194","-11.17041"
"3128070","-0.1455841","-12.918182","-10.07782"
"3128091","2.7703705","-19.51419","-6.5786743"
"3128111","4.9507904","-19.51419","-6.050232"
"3128131","-1.33815","-13.068146","-12.567688"
"3128151","-2.8115997","-4.398834","-3.4770508"
"3128171","-4.2731476","-2.4040833","-3.5508423"
"3128191","0.2328949","-0.9092102","-2.2392578"
"3128212","4.872238","0.98080444","-1.8131714"
"3128232","8.226181","3.030304","0.33868408"
"3128252","9.775803","6.050995","10.621887"
"3128272","5.667282","3.5492249","7.427429"
"3128292","-1.4381256","2.8946228","2.897583"
"3128312","-13.761307","-1.9303894","-19.73677"
"3128332","-10.869156","-19.51419","-19.73677"
"3128352","-19.738419","-19.51419","19.262634"
"3128372","15.184006","-19.51419","-19.73677"
"3128392","17.857162","-19.51419","8.591431"
"3128412","13.7200775","-11.113861","-8.147339"
"3128432","1.5397186","-7.983673","2.666687"
"3128452","-0.6740265","-11.278107","-0.7919922"
"3128472","-2.8663483","-8.888214","0.5671997"
"3128492","-4.0232086","-4.282196","-1.1680908"
"3128512","-0.78590393","3.1278992","-2.522522"
"3128532","0.4971161","4.006256","-14.712402"
"3128552","-7.0819855","-2.0398865","2.3881836"
"3128573","-0.9953766","0.44760132","11.738281"
"3128592","7.0359955","-3.0491638","-7.7617188"
"3128612","6.8955536","-9.671356","-11.994019"
"3128633","-13.797012","-19.51419","-5.9264526"
"3128652","11.325424","-19.51419","-7.147583"
"3128673","0.4542694","-13.653717","-4.8291016"
"3128692","-0.5478668","-7.4076233","-10.999023"
"3128713","-3.0282135","-4.120331","-2.7581787"
"3128732","-1.3238678","-1.1639099","-2.5820313"
"3128753","1.3231049","-0.3664856","-1.284729"
"3128772","5.5530243","0.08816528","-1.3609009"
"3128792","8.468979","1.9805603","2.6500244"
"3128812","7.090744","5.229767","9.686401"
"3128832","2.7465668","5.141693","3.4450684"
"3128852","-6.179825","3.1921692","-4.3934937"
"3128872","-8.90535","-6.329315","-16.94757"
"3128892","-17.750809","-19.51419","-2.503479"
"3128912","-17.041458","-19.51419","-6.345398"
"3128932","12.315659","-19.51419","-3.6865234"
"3128952","18.954514","-18.93814","2.3096313"
"3128972","12.770309","-11.197174","-6.3358765"
"3128992","-2.3926544","-8.335968","2.178711"
"3129013","-1.8451691","-12.784882","1.2313232"
"3129033","-1.9641876","-10.099823","13.128418"
"3129053","-7.058182","-0.50930786","-19.73677"
"3129073","-3.794693","4.4561462","-16.94281"
"3129093","-1.5904694","3.2016907","-6.9761963"
"3129114","-3.4519196","0.050079346","2.9856567"
"3129133","-1.8951569","-2.492157","3.7211914"
"3129153","5.4887543","0.17861938","0.3862915"
"3129175","8.702255","-6.1007996","-6.8571777"
"3129193","2.3157196","-14.808197","-9.099487"
"3129213","6.193344","-19.51419","-8.882874"
"3129233","7.3002167","-19.51419","-9.992126"
"3129254","3.8343964","-9.940338","-7.428467"
"3129273","2.5847015","-5.8746643","-7.0547485"
"3129295","-2.2760162","-2.0137024","-6.22876"
"3129313","-2.004654","-1.0829773","-2.0321655"
"3129333","0.6780243","1.3330994","0.24584961"
"3129354","0.93510437","2.6732483","1.2479858"
"3129374","1.03508","3.0731506","1.40271"
"3129394","2.0181732","2.6018372","2.8261719"
"3129415","2.491867","0.92129517","5.4279175"
"3129434","3.2773895","1.3140564","1.9335327"
"3129454","-5.8703766","-1.6209412","-12.241577"
"3129475","-4.120804","-16.602997","-13.379395"
"3129494","-19.738419","-19.51419","19.262634"
"3129514","19.260986","-18.007416","3.4093628"
"3129535","11.146896","-19.51419","-7.011902"
"3129555","19.260986","-16.267365","3.0094604"
"3129574","5.3625946","-1.2662659","0.85998535"
"3129594","-3.4852448","-9.716583","0.045898438"
"3129614","-5.2610016","-14.862946","-2.3273315"
"3129634","-4.1184235","-10.59256","-0.4611206"
"3129655","-3.075821","-0.3736267","-3.6341553"
"3129674","-2.9591827","3.492096","-9.473206"
"3129694","-0.44789124","1.3878479","-2.6915283"
"3129714","-1.1477203","2.356659","4.828064"
"3129736","4.869858","-0.12130737","-2.4058838"
"3129754","7.1788177","-6.5673523","-6.428711"
"3129776","0.50187683","-17.769379","-8.435364"
"3129794","9.425888","-19.51419","-5.5551147"
"3129814","3.9653168","-19.51419","-4.748169"
"3129834","-0.73353577","-10.076019","-8.099731"
"3129855","1.5730438","-9.992706","-6.966675"
"3129875","-2.2022247","-2.57547","-6.2073364"
"3129896","0.2162323","2.1352844","-2.5534668"
"3129915","1.6682587","2.920807","-0.6348877"
"3129935","3.7439423","4.1824036","0.7005005"
"3129955","4.3414154","4.9060364","2.2334595"
"3129975","5.000778","2.9136658","7.8201904"
"3129996","4.0343475","1.292633","3.4379272"
"3130015","-5.668045","0.5142517","-9.185181"
"3130036","-7.4342804","-12.851532","-10.063538"
"3130056","-19.738419","-19.51419","19.262634"
"3130075","19.109238","-19.51419","-19.73677"
"3130097","7.083603","-19.51419","2.0406494"
"3130115","13.748642","-12.496857","-2.0631104"
"3130135","2.70372","-9.804657","2.5690918"
"3130156","-3.6804352","-10.585419","0.6838379"
"3130175","0.4875946","-8.28598","-2.4273071"
"3130195","-2.6878204","-3.3728943","2.519104"
"3130215","-3.8146973E-4","2.2662048","10.119629"
"3130235","-1.9760895","2.3614197","-14.086365"
"3130255","-5.3038483","0.5832825","-4.510132"
"3130276","-1.440506","-1.273407","1.7502441"
"3130297","2.6370697","-1.2948303","-0.03741455"
"3130316","7.7215424","-1.3067322","-2.1916504"
"3130336","1.5825653","-18.112152","-5.4765625"
"3130356","8.771286","-19.51419","-7.3832397"
"3130376","4.2581024","-19.51419","-6.1168823"
"3130396","-0.5573883","-11.582794","-11.805969"
"3130417","-0.8858795","-5.5176086","-2.6653442"
"3130436","-1.9784698","-3.2134094","-4.210205"
"3130457","-1.7761383","-6.560211","-19.73677"
"3130476","2.6037445","1.6354065","-1.5394287"
"3130496","3.1060028","4.244293","-3.446106"
"3130518","2.6346893","5.4059143","0.64575195"
"3130536","5.165024","5.4916077","10.262451"
"3130556","1.5825653","3.858673","2.3810425"
"3130576","-7.8579865","-3.0158386","-11.417969"
"3130596","-6.444046","-17.700348","-19.73677"
"3130616","-13.661331","-19.51419","19.262634"
"3130636","10.973129","-19.51419","-19.73677"
"3130657","10.418503","-17.350433","4.842346"
"3130676","17.721481","-12.470673","-7.885498"
"3130696","4.5104218","-11.42569","2.890442"
"3130717","-7.1129303","-11.047211","-0.2230835"
"3130736","-2.068924","-10.33548","1.46698"
"3130757","-5.218155","-4.7416077","1.4312744"
"3130777","0.27574158","2.9184265","10.402893"
"3130797","-3.5471344","3.1897888","-11.946411"
"3130817","-2.1093903","-0.2260437","-8.597229"
"3130837","0.7827606","-1.9684753","6.2372437"
"3130857","5.122177","-0.3093567","7.4559937"
"3130877","2.1538544","-2.5730896","-4.022156"
"3130897","3.510666","-15.208099","-10.934753"
"3130918","1.0136566","-19.51419","-5.978821"
"3130938","3.203598","-19.51419","-8.866211"
"3130958","1.1969452","-13.958405","-5.671753"
"3130978","-0.8644562","-7.276703","-10.996643"
"3130998","-1.6618805","-2.499298","-2.6939087"
"3131018","-1.780899","-0.41409302","-0.21594238"
"3131038","3.0036469","2.3280945","-1.2633057"
"3131058","5.6387177","3.7705994","0.97424316"
"3131078","7.0478973","6.289032","4.3067627"
"3131098","4.2152557","5.724884","6.391968"
"3131118","-0.34791565","2.6304016","1.2479858"
"3131138","-7.1533966","-6.848236","-19.73677"
"3131158","-7.700882","-19.51419","-18.401978"
"3131178","-16.941483","-19.51419","17.817749"
"3131198","8.2357025","-19.51419","-14.967102"
"3131218","15.164963","-19.51419","4.563843"
"3131238","9.099777","-12.235016","-5.864563"
"3131259","0.1424408","-8.997711","4.463867"
"3131278","-2.5069122","-10.3402405","-3.703186"
"3131298","-1.9046783","-9.181","-0.7420044"
"3131319","-4.6183014","-4.1179504","1.2075195"
"3131338","1.9253387","1.0783997","9.041321"
"3131359","-4.796829","3.3373718","-16.054932"
"3131378","-1.8808746","1.0664978","-6.121643"
"3131398","-0.6478424","-0.35458374","1.1313477"
"3131418","2.1014862","1.6187439","6.9680176"
"3131438","8.352341","-2.1446228","-7.019043"
"3131459","5.1174164","-12.934845","-10.251587"
"3131478","1.1850433","-19.51419","-10.52533"
"3131498","6.1623993","-19.51419","-6.2644653"
"3131518","0.868454","-17.788422","-18.197266"
"3131540","1.29216","-7.931305","-15.238464"
"3131558","1.7111053","-3.8275452","-2.4106445"
"3131578","1.5897064","-0.57595825","2.7595215"
"3131598","2.6656342","0.5499573","2.3691406"
"3131620","1.2754974","0.98080444","-0.6586914"
"3131638","-1.0001373","-0.0022888184","0.8052368"
"3131659","1.6849213","0.6784973","2.711914"
"3131679","3.4225922","1.773468","4.1258545"
"3131699","3.4630585","-0.07608032","2.9451904"
"3131720","0.7589569","-0.054656982","-2.6534424"
"3131739","-10.909622","-0.87350464","-16.42389"
"3131759","-8.831558","-17.288544","-19.73677"
"3131779","-19.738419","-19.51419","19.262634"
"3131799","7.1645355","-19.51419","-19.73677"
"3131820","18.078537","-18.090729","3.6688232"
"3131839","19.260986","-14.517792","3.2165527"
"3131859","1.144577","-5.917511","0.04827881"
"3131879","-3.9708405","-10.314056","0.19586182"
"3131899","-3.7589874","-17.20047","-4.1030884"
"3131921","-4.1374664","-11.29953","-2.0845337"
"3131939","-7.855606","-2.6111755","-0.8395996"
"3131960","-5.063431","6.486603","-7.461792"
"3131979","-3.5971222","3.0636292","-19.73677"
"3131999","5.295944","0.48330688","-19.73677"
"3132021","5.8243866","0.19766235","8.946106"
"3132039","5.8362885","-2.9706116","-4.702942"
"3132060","4.2914276","-12.970551","-15.038513"
"3132079","-1.9522858","-19.51419","-8.563904"
"3132099","8.2547455","-19.51419","-6.890503"
"3132121","1.5825653","-11.718475","-4.107849"
"3132140","0.0067596436","-6.576874","-9.827881"
"3132160","-2.678299","-3.7799377","-3.5841675"
"3132180","-1.3429108","-1.5971375","0.39819336"
"3132200","1.9372406","2.061493","0.50531006"
"3132221","1.8039398","3.8943787","-0.044555664"
"3132240","1.4992523","4.794159","-1.2466431"
"3132261","4.800827","4.070526","3.1380005"
"3132280","7.188339","2.5066223","3.7497559"
"3132300","-3.2781525","-0.90682983","-8.563904"
"3132320","-7.4152374","-8.435944","8.096313"
"3132342","-19.738419","-19.51419","19.262634"
"3132361","-2.0451202","-19.51419","-19.73677"
"3132380","0.7089691","-17.157623","-2.3868408"
"3132400","12.094284","-13.003876","1.2741699"
"3132422","6.859848","-11.066254","-0.8729248"
"3132440","-0.20747375","-10.806793","1.6740723"
"3132461","0.7184906","-10.161713","-2.7700806"
"3132480","1.0922089","-7.6908875","2.3381958"
"3132500","4.196213","-2.6540222","-2.2225952"
"3132521","-2.152237","1.4164124","-9.354187"
"3132541","-2.723526","1.4378357","-8.890015"
"3132561","-1.1953278","-0.06417847","-5.326599"
"3132581","-1.7499542","-1.0901184","-0.6015625"
"3132602","3.9700775","-0.4569397","1.2884521"
"3132621","6.557541","-6.8648987","-3.1866455"
"3132641","-11.695145","-19.51419","-6.064514"
"3132661","13.203537","-19.51419","-9.416077"
"3132681","5.0745697","-17.762238","-10.496765"
"3132701","3.8653412","-6.269806","-9.237549"
"3132722","-0.29792786","-1.3352966","-2.2249756"
"3132741","-3.609024","-0.6616516","-0.5944214"
"3132762","-0.62879944","-0.91397095","-1.5632324"
"3132781","0.15434265","0.19052124","-0.35162354"
"3132802","0.6875458","0.8522644","3.9282837"
"3132821","2.0562592","3.889618","3.9592285"
"3132841","2.2585907","6.2080994","2.5809937"
"3132862","1.4421234","4.101471","5.156555"
"3132881","-4.0041656","-1.4186096","-9.492249"
"3132901","-5.37764","-19.51419","-19.73677"
"3132923","-13.777969","-19.51419","19.262634"
"3132941","-1.7142487","-19.51419","-9.366089"
"3132962","11.949081","-19.51419","-2.6272583"
"3132981","8.947433","-14.782013","-0.3944702"
"3133001","-3.5661774","-10.456879","2.62146"
"3133021","0.6542206","-10.492584","-0.32543945"
"3133041","-0.51216125","-7.0886536","-3.0343018"
"3133061","-3.102005","0.41189575","-4.029297"
"3133082","-11.357132","1.3997498","-19.73677"
"3133103","-2.890152","0.50234985","-5.5717773"
"3133122","-2.6354523","-2.2279358","13.766357"
"3133143","2.70372","0.3500061","6.194397"
"3133163","8.292831","-0.9996643","0.69573975"
"3133183","1.5635223","-8.533539","-6.1763916"
"3133203","-12.330704","-19.51419","-12.596252"
"3133223","12.244247","-19.51419","-7.468933"
"3133243","2.272873","-17.493256","-9.918335"
"3133263","0.80656433","-8.966766","-10.054016"
"3133283","0.5042572","-2.242218","-0.8729248"
"3133303","-1.9380035","-0.23318481","-0.8824463"
"3133323","1.4230804","1.3830872","-2.1154785"
"3133343","2.5989838","3.0707703","0.32678223"
"3133363","4.748459","5.6987","3.0094604"
"3133383","5.360214","7.643463","4.4281616"
"3133402","2.7656097","4.230011","5.0803833"
"3133423","-3.044876","-1.947052","-4.5220337"
"3133443","-2.659256","-18.29068","-19.73677"
"3133462","-19.738419","-19.51419","19.262634"
"3133483","11.782455","-19.51419","-19.73677"
"3133503","4.9127045","-19.51419","-2.6201172"
"3133523","15.255417","-14.553497","-0.99432373"
"3133543","6.1385956","-11.175751","2.3096313"
"3133563","-3.3995514","-11.901764","3.442688"
"3133584","-1.2691193","-10.159332","-2.7319946"
"3133604","-1.6452179","-7.0505676","0.28155518"
"3133624","-2.6092682","0.73324585","-0.3873291"
"3133644","-1.6118927","4.172882","-10.051636"
"3133664","-3.7613678","1.3211975","-19.73677"
"3133684","-6.7035065","-0.27127075","8.838989"
"3133704","5.724411","3.0779114","5.6397705"
"3133724","5.6553802","-2.1565247","-6.635803"
"3133744","4.6246796","-11.011505","-6.216858"
"3133764","-4.22554","-19.51419","-8.404419"
"3133783","5.391159","-19.51419","-12.093994"
"3133803","2.5061493","-14.7344055","-7.7593384"
"3133824","3.4106903","-7.019623","-12.265381"
"3133843","0.87797546","-2.196991","-6.802429"
"3133863","-1.1929474","-1.273407","0.97662354"
"3133883","1.0755463","0.30477905","0.524353"
"3133903","-0.7573395","0.52853394","-0.6444092"
"3133923","-0.007522583","-1.0734558","1.1432495"
"3133943","3.5582733","-0.06893921","2.6547852"
"3133963","6.0743256","0.7380066","4.7661743"
"3133983","4.9888763","0.50949097","2.511963"
"3134003","0.20909119","3.19693","-4.069763"
"3134024","-12.940079","3.223114","-15.1432495"
"3134044","-5.596634","-19.51419","-19.73677"
"3134064","-10.981033","-19.51419","19.262634"
"3134086","-3.037735","-19.51419","-19.70404"
"3134104","14.205673","-14.034576","4.256775"
"3134124","12.151413","-10.240265","3.7211914"
"3134146","-2.6925812","-11.304291","0.8242798"
"3134165","-5.0182037","-14.163116","-1.746521"
"3134184","0.7113495","-11.347137","-3.3651733"
"3134206","0.38761902","-3.0801086","-0.2397461"
"3134224","-3.1234283","2.806549","-1.303772"
"3134244","2.8655853","2.42807","12.200073"
"3134265","-2.3569489","3.0541077","-13.098511"
"3134284","2.1538544","0.76657104","-2.496338"
"3134304","5.774399","-0.43551636","0.6148071"
"3134325","8.035751","-8.397858","-3.6889038"
"3134345","0.45664978","-19.51419","-8.847168"
"3134364","4.672287","-19.51419","-3.7626953"
"3134385","-1.5833282","-11.149567","-6.069275"
"3134406","-0.43122864","-6.7744446","-7.3094482"
"3134425","2.1157684","-6.307892","-7.9212036"
"3134445","2.5632782","-3.6752014","-7.583191"
"3134465","1.6277924","-2.877777","-4.222107"
"3134485","-0.47407532","-1.0258484","-1.1776123"
"3134506","-2.140335","-0.22842407","0.6981201"
"3134525","-1.6428375","-0.9925232","2.5500488"
"3134545","0.47569275","-2.2636414","1.7669067"
"3134566","2.0443573","-6.455475","0.7481079"
"3134585","1.9253387","-11.5589905","-0.47540283"
"3134605","-2.5354767","-19.51419","-3.7174683"
"3134625","-13.804153","-19.51419","-5.78125"
"3134645","-0.34077454","-15.415192","-5.7193604"
"3134665","2.1276703","-6.431671","2.083496"
"3134685","-1.9046783","-5.5866394","-0.41351318"
"3134705","-2.8853912","-4.3226624","-4.229248"
"3134725","-0.27174377","-6.0936584","-2.1678467"
"3134745","1.5992279","-7.878937","-0.2230835"
"3134765","3.4225922","-9.9427185","-1.8845825"
"3134785","4.198593","-9.726105","-0.81817627"
"3134807","0.04008484","-11.142426","0.8718872"
"3134826","-2.5664215","-11.980316","0.76953125"
"3134846","-1.947525","-10.749664","-3.593689"
"3134866","-0.9215851","-10.287872","-5.0147705"
"3134887","-0.31697083","-8.969147","-2.0631104"
"3134906","0.82084656","-8.181244","0.07922363"
"3134928","1.35643","-8.92392","0.1315918"
"3134946","1.496872","-9.618988","-1.3728027"
"3134967","1.1993256","-9.926056","-1.7536621"
"3134986","1.3373871","-10.302155","-2.079773"
"3135008","0.58280945","-10.4687805","-1.5037231"
"3135026","-0.4502716","-9.44046","-1.5465698"
"3135046","-1.5738068","-9.140533","-1.5775146"
"3135067","-1.9951324","-9.226227","-1.9940796"
"3135086","-1.6618805","-9.435699","-1.451355"
"3135107","-1.7856598","-10.01889","-1.3442383"
"3135126","-2.023697","-10.068878","-1.0371704"
"3135148","-1.5904694","-9.7118225","-1.0157471"
"3135167","-1.1358185","-9.721344","-1.387085"
"3135186","-1.2619781","-9.523773","-1.2752075"
"3135206","-1.8880157","-9.369049","-1.0942993"
"3135226","-2.2379303","-9.409515","-0.9205322"
"3135246","-2.0974884","-9.471405","-1.3347168"
"3135267","-2.0855865","-9.688019","-1.470398"
"3135287","-1.735672","-9.611847","-1.3537598"
"3135307","-1.440506","-9.649933","-1.2990112"
"3135328","-1.4452667","-9.861786","-1.1966553"
"3135347","-1.3024445","-9.814178","-1.2442627"
"3135367","-1.4833527","-9.616608","-1.2966309"
"3135388","-1.5714264","-9.3333435","-1.2823486"
"3135407","-1.3333893","-9.345245","-1.5108643"
"3135427","-1.1167755","-9.511871","-1.515625"
"3135447","-0.87635803","-9.523773","-1.6465454"
"3135468","-0.683548","-9.530914","-1.701294"
"3135487","-0.5026398","-9.561859","-1.7988892"
"3135509","-0.41932678","-9.69516","-2.0464478"
"3135527","-0.25508118","-9.588043","-2.2011719"
"3135547","-0.076553345","-9.490448","-2.1607056"
"3135568","-0.009902954","-9.352386","-2.310669"
"3135587","-0.050369263","-9.485687","-2.2773438"
"3135607","0.02104187","-9.580902","-2.2297363"
"3135629","0.018661499","-9.547577","-2.1749878"
"3135647","-0.12654114","-9.37381","-2.2821045"
"3135667","-0.23365784","-9.369049","-2.25354"
"3135689","-0.16700745","-9.423798","-2.163086"
"3135708","-0.24794006","-9.507111","-2.1964111"
"3135728","-0.28364563","-9.583282","-2.227356"
"3135749","-0.35029602","-9.604706","-2.117859"
"3135768","-0.42408752","-9.423798","-1.9369507"
"3135788","-0.58595276","-9.359528","-1.93219"
"3135809","-0.831131","-9.326202","-1.7560425"
"3135828","-1.0644073","-9.30954","-1.6965332"
"3135848","-1.2143707","-9.397614","-1.7250977"
"3135869","-1.2953033","-9.578522","-1.7393799"
"3135888","-1.485733","-9.616608","-1.6703491"
"3135908","-1.5761871","-9.578522","-1.7941284"
"3135930","-1.440506","-9.580902","-1.8345947"
"3135948","-1.3357697","-9.569","-1.8250732"
"3135968","-1.3167267","-9.554718","-1.765564"
"3135990","-1.1024933","-9.383331","-1.8464966"
"3136008","-0.97395325","-9.242889","-1.9345703"
"3136028","-0.9192047","-9.278595","-1.99646"
"3136050","-0.96681213","-9.50473","-2.1345215"
"3136069","-0.978714","-9.595184","-2.0702515"
"3136088","-0.9096832","-9.649933","-2.1297607"
"3136110","-0.7549591","-9.683258","-2.0059814"
"3136128","-0.7978058","-9.6475525","-1.9345703"
"3136148","-0.9525299","-9.533295","-1.9298096"
"3136169","-1.062027","-9.366669","-1.8607788"
"3136189","-0.959671","-9.31192","-1.8179321"
"3136209","-0.9049225","-9.37381","-1.8703003"
"3136230","-0.88349915","-9.483307","-1.8012695"
"3136249","-0.85731506","-9.5642395","-1.7512817"
"3136269","-0.84303284","-9.5642395","-1.8036499"
"3136289","-0.7811432","-9.578522","-1.8036499"
"3136309","-0.7811432","-9.547577","-1.8464966"
"3136329","-0.96681213","-9.519012","-1.7608032"
"3136350","-1.0715485","-9.588043","-1.7322388"
"3136369","-1.2119904","-9.69278","-1.7512817"
"3136389","-1.292923","-9.580902","-1.4489746"
"3136409","-1.1858063","-9.542816","-1.3561401"
"3136429","-1.1858063","-9.521393","-1.2585449"
"3136449","-1.0287018","-9.492828","-1.2942505"
"3136469","-0.9549103","-9.607086","-1.2133179"
"3136489","-0.8882599","-9.707062","-1.348999"
"3136510","-0.683548","-9.571381","-1.329956"
"3136530","-0.728775","-9.4999695","-1.5322876"
"3136550","-0.7382965","-9.511871","-1.451355"
"3136569","-0.7811432","-9.554718","-1.5251465"
"3136590","-0.7882843","-9.680878","-1.6370239"
"3136610","-0.8620758","-9.76181","-1.6774902"
"3136630","-0.85017395","-9.6285095","-1.7560425"
"3136650","-0.88349915","-9.554718","-1.6655884"
"3136670","-0.8025665","-9.516632","-1.7679443"
"3136690","-0.82398987","-9.530914","-1.8798218"
"3136710","-0.7906647","-9.471405","-1.7893677"
"3136730","-0.812088","-9.597565","-1.6774902"
"3136750","-0.90730286","-9.680878","-1.5917969"
"3136771","-0.89302063","-9.535675","-1.5037231"
"3136792","-0.895401","-9.6285095","-1.3537598"
"3136811","-0.93348694","-9.749908","-1.4061279"
"3136831","-1.1429596","-9.668976","-1.3156738"
"3136851","-1.1953278","-9.423798","-1.1276245"
"3136871","-1.254837","-9.497589","-1.182373"
"3136891","-1.1572418","-9.652313","-1.1252441"
"3136911","-0.8787384","-9.590424","-1.1014404"
"3136931","-0.7978058","-9.552338","-1.1347656"
"3136951","-0.78352356","-9.63327","-1.1942749"
"3136971","-0.94776917","-9.749908","-1.0871582"
"3136991","-0.9953766","-9.676117","-1.0514526"
"3137011","-0.99061584","-9.599945","-0.97528076"
"3137030","-1.1572418","-9.649933","-1.0776367"
"3137051","-1.0953522","-9.754669","-1.118103"
"3137071","-1.1977081","-9.721344","-1.1300049"
"3137091","-1.1334381","-9.573761","-1.1514282"
"3137111","-1.1548615","-9.583282","-1.2061768"
"3137131","-1.1191559","-9.557098","-1.2418823"
"3137151","-1.0786896","-9.490448","-1.3085327"
"3137171","-0.9763336","-9.595184","-1.4227905"
"3137191","-0.9691925","-9.69278","-1.4394531"
"3137212","-1.1096344","-9.714203","-1.1347656"
"3137232","-1.0191803","-9.76181","-1.2585449"
"3137252","-1.0953522","-9.849884","-1.894104"
"3137272","-1.3738556","-9.645172","-2.0297852"
"3137291","-1.735672","-8.904877","-2.0535889"
"3137311","-2.1284332","-8.662079","-4.043579"
"3137331","-2.3212433","-8.302643","-5.5217896"
"3137351","-1.3024445","-8.940582","-2.3273315"
"3137371","3.0012665","-10.685394","1.5383911"
"3137391","4.7127533","-10.53067","-1.265686"
"3137411","0.6446991","-10.295013","-4.388733"
"3137431","-1.1405792","-9.845123","-4.234009"
"3137451","-1.7904205","-9.11911","-1.9369507"
"3137471","-1.4000397","-8.393097","-0.9086304"
"3137491","-1.8808746","-8.902496","-1.3394775"
"3137512","-2.10701","-9.707062","-2.1011963"
"3137532","-1.9808502","-9.937958","-2.272583"
"3137552","-1.716629","-9.747528","-1.875061"
"3137572","-1.4167023","-9.280975","-1.4108887"
"3137592","-1.2524567","-9.209564","-1.7322388"
"3137612","-1.2048492","-9.476166","-2.0964355"
"3137632","-0.85017395","-9.454742","-2.06073"
"3137652","-0.73591614","-9.50473","-1.9607544"
"3137673","-0.7621002","-9.447601","-1.8036499"
"3137692","-1.0953522","-9.549957","-1.5775146"
"3137712","-1.4452667","-9.514252","-1.5465698"
"3137733","-1.6785431","-9.507111","-1.5370483"
"3137753","-1.569046","-9.44046","-1.2585449"
"3137773","-1.3833771","-9.509491","-1.3370972"
"3137793","-1.1477203","-9.604706","-1.3966064"
"3137813","-1.126297","-9.707062","-1.3847046"
"3137833","-0.8787384","-9.82132","-1.4156494"
"3137853","-0.64308167","-9.754669","-1.3347168"
"3137873","-0.5835724","-9.626129","-1.1942749"
"3137893","-0.66926575","-9.709442","-1.2990112"
"3137913","-0.57167053","-9.492828","-1.4108887"
"3137933","-0.5264435","-9.423798","-1.3275757"
"3137953","-0.7311554","-9.552338","-1.3370972"
"3137973","-0.91444397","-9.559479","-1.2371216"
"3137993","-1.2453156","-9.63089","-1.2799683"
"3138012","-1.2381744","-9.576141","-1.3537598"
"3138033","-1.107254","-9.645172","-1.1419067"
"3138053","-1.3143463","-9.654694","-1.0062256"
"3138072","-1.3452911","-9.616608","-1.0157471"
"3138092","-1.2953033","-9.63327","-1.0395508"
"3138113","-1.2381744","-9.818939","-1.0847778"
"3138134","-1.3095856","-9.740387","-1.1490479"
"3138154","-1.2953033","-9.664215","-1.1276245"
"3138174","-1.2238922","-9.421417","-1.1085815"
"3138194","-1.1405792","-9.464264","-1.0514526"
"3138214","-1.190567","-9.614227","-1.0681152"
"3138234","-1.1667633","-9.666595","-1.1966553"
"3138254","-1.2881622","-9.735626","-1.2537842"
"3138274","-1.0644073","-9.559479","-1.2537842"
"3138294","-0.9525299","-9.583282","-1.1728516"
"3138314","-0.92396545","-9.590424","-1.2561646"
"3138334","-1.0072784","-9.585663","-1.1871338"
"3138354","-1.1239166","-9.626129","-1.2037964"
"3138374","-1.2262726","-9.547577","-1.1204834"
"3138394","-1.2619781","-9.545197","-1.1109619"
"3138414","-1.3310089","-9.557098","-1.1490479"
"3138434","-1.292923","-9.588043","-1.239502"
"3138454","-1.190567","-9.599945","-1.1776123"
"3138474","-1.1048737","-9.640411","-1.1466675"
"3138494","-1.0834503","-9.590424","-1.2037964"
"3138514","-1.0763092","-9.569","-1.2442627"
"3138534","-1.0215607","-9.618988","-1.3466187"
"3138553","-0.87635803","-9.659454","-1.284729"
"3138575","-0.8715973","-9.616608","-1.2728271"
"3138595","-0.79304504","-9.542816","-1.2871094"
"3138615","-0.7406769","-9.571381","-1.2942505"
"3138635","-0.68592834","-9.578522","-1.2775879"
"3138654","-0.6716461","-9.642792","-1.3370972"
"3138675","-0.831131","-9.554718","-1.2180786"
"3138694","-0.8858795","-9.533295","-1.2537842"
"3138714","-0.87397766","-9.521393","-1.4037476"
"3138734","-0.7740021","-9.547577","-1.4370728"
"3138756","-0.8549347","-9.671356","-1.3942261"
"3138774","-0.78590393","-9.676117","-1.348999"
"3138794","-0.7382965","-9.661835","-1.4346924"
"3138814","-0.5669098","-9.621368","-1.4656372"
"3138834","-0.6073761","-9.540436","-1.4537354"
"3138854","-0.6335602","-9.471405","-1.387085"
"3138874","-0.79304504","-9.4999695","-1.3751831"
"3138894","-0.8073273","-9.635651","-1.470398"
"3138914","-0.87397766","-9.76181","-1.3251953"
"3138934","-0.98347473","-9.595184","-1.2490234"
"3138954","-1.1381989","-9.514252","-1.1228638"
"3138974","-1.2215118","-9.63327","-1.1514282"
"3138994","-1.3286285","-9.592804","-1.1323853"
"3139014","-1.3857574","-9.5642395","-1.0800171"
"3139034","-1.3833771","-9.728485","-1.1514282"
"3139056","-1.2143707","-9.707062","-1.2442627"
"3139076","-1.0096588","-9.63089","-1.2942505"
"3139095","-0.80970764","-9.542816","-1.3394775"
"3139116","-0.8620758","-9.640411","-1.322815"
"3139135","-0.9049225","-9.569","-1.4013672"
"3139155","-0.88349915","-9.621368","-1.5203857"
"3139176","-0.8882599","-9.638031","-1.4989624"
"3139195","-1.1120148","-9.714203","-1.3847046"
"3139215","-1.3214874","-9.652313","-1.4537354"
"3139237","-1.2786407","-9.533295","-1.2680664"
"3139255","-1.3476715","-9.497589","-1.1228638"
"3139275","-1.4643097","-9.528534","-0.98480225"
"3139295","-1.5619049","-9.585663","-0.9562378"
"3139317","-1.588089","-9.604706","-1.1133423"
"3139335","-1.4428864","-9.569","-1.2823486"
"3139355","-1.4167023","-9.588043","-1.2442627"
"3139376","-1.3857574","-9.5642395","-1.239502"
"3139395","-1.3857574","-9.435699","-1.3180542"
"3139416","-1.2476959","-9.530914","-1.3823242"
"3139436","-1.3476715","-9.585663","-1.2799683"
"3139456","-1.4238434","-9.640411","-1.4275513"
"3139476","-1.3857574","-9.673737","-1.5560913"
"3139496","-1.1477203","-9.69278","-1.6227417"
"3139516","-1.0763092","-9.602325","-1.515625"
"3139536","-0.9215851","-9.50473","-1.5084839"
"3139557","-0.94776917","-9.588043","-1.5132446"
"3139576","-1.0263214","-9.540436","-1.5560913"
"3139597","-1.0691681","-9.516632","-1.598938"
"3139616","-0.8477936","-9.421417","-1.5203857"
"3139636","-0.7216339","-9.483307","-1.4156494"
"3139658","-1.2048492","-9.714203","-1.2966309"
"3139677","-1.7285309","-9.7951355","-1.1895142"
"3139696","-1.947525","-9.635651","-1.0181274"
"3139718","-1.7928009","-9.554718","-1.0419312"
"3139736","-1.5785675","-9.350006","-0.9038696"
"3139756","-1.2405548","-9.152435","-1.0395508"
"3139777","-1.0167999","-9.56662","-1.1990356"
"3139796","-1.2881622","-9.723724","-1.1776123"
"3139816","-1.4262238","-9.676117","-1.2347412"
"3139838","-1.4143219","-9.6285095","-1.3204346"
"3139857","-1.5619049","-9.578522","-1.3609009"
"3139877","-1.6095123","-9.473785","-1.2990112"
"3139898","-1.5452423","-9.495209","-1.1633301"
"3139917","-1.5976105","-9.492828","-1.2061768"
"3139937","-1.3548126","-9.538055","-1.5275269"
"3139958","-1.0453644","-9.519012","-1.432312"
"3139978","-1.0977325","-9.664215","-1.239502"
"3139997","-1.3238678","-9.714203","-1.1680908"
"3140018","-1.4333649","-9.690399","-1.2680664"
"3140037","-1.2143707","-9.530914","-1.2037964"
"3140057","-0.9929962","-9.571381","-0.91101074"
"3140078","-1.1096344","-9.640411","-0.91815186"
"3140097","-1.376236","-9.718964","-1.0800171"
"3140117","-1.3476715","-9.702301","-1.4108887"
"3140139","-1.08107","-9.623749","-1.3728027"
"3140157","-0.95014954","-9.590424","-1.1966553"
"3140177","-0.8644562","-9.554718","-1.3156738"
"3140197","-0.7002106","-9.542816","-1.4727783"
"3140219","-0.41456604","-9.554718","-1.5251465"
"3140237","-0.27174377","-9.6285095","-1.5322876"
"3140257","-0.25746155","-9.676117","-1.7679443"
"3140278","-0.36695862","-9.721344","-1.9155273"
"3140297","-0.3598175","-9.690399","-1.6989136"
"3140318","-0.48597717","-9.559479","-1.6893921"
"3140338","-0.60261536","-9.466644","-1.7131958"
"3140358","-0.66212463","-9.569","-1.8417358"
"3140378","-0.7216339","-9.473785","-1.8583984"
"3140398","-0.76924133","-9.421417","-1.7131958"
"3140418","-0.8216095","-9.369049","-1.7489014"
"3140439","-0.80018616","-9.521393","-1.7036743"
"3140458","-0.71687317","-9.618988","-1.7417603"
"3140478","-0.6978302","-9.607086","-1.6489258"
"3140500","-0.6311798","-9.595184","-1.6798706"
"3140518","-0.7454376","-9.573761","-1.6060791"
"3140538","-0.91444397","-9.580902","-1.6370239"
"3140560","-0.978714","-9.645172","-1.5394287"
"3140579","-1.0358429","-9.569","-1.4156494"
"3140598","-1.0191803","-9.535675","-1.2680664"
"3140620","-1.0406036","-9.538055","-1.2109375"
"3140638","-1.1477203","-9.649933","-1.0704956"
"3140658","-1.357193","-9.783234","-1.2894897"
"3140679","-1.4928741","-9.69278","-1.2966309"
"3140698","-1.3357697","-9.661835","-1.182373"
"3140718","-1.2810211","-9.4809265","-1.2442627"
"3140740","-1.3167267","-9.485687","-1.2252197"
"3140759","-1.4071808","-9.516632","-1.3251953"
"3140778","-1.3881378","-9.588043","-1.1609497"
"3140800","-1.3643341","-9.609467","-1.1538086"
"3140819","-1.3809967","-9.654694","-1.0966797"
"3140839","-1.4286041","-9.657074","-1.1347656"
"3140860","-1.4309845","-9.583282","-1.0181274"
"3140879","-1.3262482","-9.552338","-1.1038208"
"3140900","-1.2976837","-9.50235","-1.1133423"
"3140919","-1.1739044","-9.585663","-1.2990112"
"3140939","-0.9287262","-9.561859","-1.3394775"
"3140960","-0.75257874","-9.599945","-1.322815"
"3140979","-0.7311554","-9.583282","-1.5037231"
"3141000","-0.7621002","-9.592804","-1.5894165"
"3141019","-0.79304504","-9.585663","-1.6941528"
"3141039","-0.9858551","-9.485687","-1.7322388"
"3141059","-1.0501251","-9.483307","-1.5537109"
"3141079","-1.2119904","-9.485687","-1.5870361"
"3141101","-1.3167267","-9.56662","-1.5775146"
"3141119","-1.319107","-9.580902","-1.7822266"
"3141139","-1.1786652","-9.483307","-1.7822266"
"3141161","-1.1120148","-9.549957","-1.7227173"
"3141180","-1.0929718","-9.571381","-1.6036987"
"3141199","-1.023941","-9.616608","-1.5846558"
"3141221","-0.9715729","-9.538055","-1.5037231"
"3141239","-1.0929718","-9.626129","-1.4489746"
"3141260","-1.2595978","-9.599945","-1.4204102"
"3141280","-1.33815","-9.4999695","-1.496582"
"3141300","-1.3833771","-9.561859","-1.5227661"
"3141321","-1.421463","-9.530914","-1.5251465"
"3141340","-1.5785675","-9.407135","-1.579895"
"3141360","-1.5642853","-9.402374","-1.5132446"
"3141381","-1.5476227","-9.457123","-1.6893921"
"3141400","-1.3262482","-9.671356","-1.9226685"
"3141420","-1.2072296","-9.618988","-1.8155518"
"3141441","-1.0358429","-9.509491","-1.6965332"
"3141460","-0.8025665","-9.454742","-1.6846313"
"3141481","-0.7644806","-9.445221","-1.6965332"
"3141501","-0.7049713","-9.519012","-1.5965576"
"3141520","-0.7740021","-9.609467","-1.7988892"
"3141540","-0.728775","-9.542816","-1.6774902"
"3141560","-0.73591614","-9.519012","-1.7298584"
"3141581","-0.8525543","-9.559479","-1.6465454"
"3141600","-0.8977814","-9.514252","-1.7536621"
"3141620","-0.9215851","-9.449982","-1.7441406"
"3141642","-0.9858551","-9.535675","-1.7322388"
"3141660","-1.0144196","-9.5642395","-1.5394287"
"3141680","-1.1762848","-9.516632","-1.682251"
"3141701","-1.3262482","-9.559479","-1.7179565"
"3141721","-1.33815","-9.530914","-1.7250977"
"3141742","-1.3976593","-9.519012","-1.7227173"
"3141761","-1.3024445","-9.421417","-1.5465698"
"3141781","-1.2191315","-9.530914","-1.6751099"
"3141801","-1.1881866","-9.688019","-1.6370239"
"3141822","-1.2000885","-9.583282","-1.5370483"
"3141841","-1.2595978","-9.50235","-1.496582"
"3141861","-1.3048248","-9.538055","-1.6132202"
"3141882","-1.1929474","-9.6285095","-1.6870117"
"3141901","-1.0572662","-9.540436","-1.5917969"
"3141921","-1.0786896","-9.452362","-1.6727295"
"3141943","-1.1620026","-9.464264","-1.6203613"
"3141961","-1.0977325","-9.523773","-1.6513062"
"3141982","-1.0382233","-9.542816","-1.6917725"
"3142001","-1.1691437","-9.526154","-1.5775146"
"3142023","-1.088211","-9.347626","-1.644165"
"3142041","-1.0025177","-9.521393","-1.5537109"
"3142061","-1.107254","-9.576141","-1.432312"
"3142082","-1.254837","-9.7308655","-1.5084839"
"3142101","-1.485733","-9.685638","-1.663208"
"3142121","-1.3738556","-9.623749","-1.5584717"
"3142141","-1.3429108","-9.530914","-1.5061035"
"3142163","-1.4286041","-9.445221","-1.515625"
"3142182","-1.4690704","-9.361908","-1.5703735"
"3142202","-1.4238434","-9.3333435","-1.5560913"
"3142223","-1.357193","-9.4166565","-1.5108643"
"3142242","-1.2953033","-9.614227","-1.3751831"
"3142262","-1.2810211","-9.6285095","-1.3394775"
"3142282","-1.2953033","-9.664215","-1.3109131"
"3142302","-1.1167755","-9.430939","-1.4370728"
"3142322","-0.97395325","-9.24765","-1.3918457"
"3142342","-0.7573395","-9.411896","-1.3109131"
"3142363","-0.67878723","-9.871307","-1.3918457"
"3142382","-0.3431549","-9.89035","-1.617981"
"3142403","0.023422241","-9.69278","-1.8655396"
"3142422","-0.052749634","-9.69278","-1.8917236"
"3142442","-0.059890747","-9.787994","-2.0012207"
"3142464","-0.1622467","-9.50473","-1.9369507"
"3142483","-0.2122345","-9.580902","-1.9488525"
"3142502","-0.35505676","-9.609467","-1.9631348"
"3142524","-0.44551086","-9.616608","-1.9702759"
"3142542","-0.7740021","-9.642792","-1.7322388"
"3142562","-0.93348694","-9.621368","-1.6751099"
"3142582","-1.1643829","-9.449982","-1.8631592"
"3142602","-1.1691437","-9.290497","-1.7703247"
"3142622","-1.088211","-9.547577","-1.682251"
"3142642","-1.1334381","-9.483307","-1.4846802"
"3142662","-1.1215363","-9.549957","-1.6584473"
"3142682","-1.1191559","-9.519012","-1.6679688"
"3142702","-0.85731506","-9.559479","-1.6798706"
"3142722","-0.78590393","-9.611847","-1.5560913"
"3142742","-0.6168976","-9.590424","-1.6322632"
"3142762","-0.6049957","-9.471405","-1.7298584"
"3142782","-0.516922","-9.473785","-1.8322144"
"3142802","-0.5026398","-9.395233","-1.8655396"
"3142823","-0.5074005","-9.252411","-1.8822021"
"3142844","-0.5907135","-9.366669","-2.0107422"
"3142863","-0.47883606","-9.511871","-1.8607788"
"3142884","-0.3360138","-9.602325","-2.0202637"
"3142903","-0.42884827","-9.609467","-2.06073"
"3142923","-0.664505","-9.507111","-2.0631104"
"3142943","-0.7906647","-9.447601","-2.18927"
"3142965","-0.49787903","-9.549957","-2.355896"
"3142983","-0.11225891","-9.523773","-2.1297607"
"3143005","-0.138443","-9.523773","-1.8583984"
"3143023","-0.30506897","-9.50235","-1.913147"
"3143043","-0.3431549","-9.585663","-1.913147"
"3143063","-0.29078674","-9.638031","-1.8655396"
"3143083","-0.23603821","-9.621368","-1.9060059"
"3143103","-0.20033264","-9.526154","-1.9631348"
"3143123","-0.10987854","-9.523773","-1.9464722"
"3143143","-0.14082336","-9.56662","-2.1011963"
"3143164","-0.18367004","-9.690399","-2.0178833"
"3143184","-0.2788849","-9.654694","-1.8560181"
"3143204","-0.3264923","-9.6475525","-1.7179565"
"3143224","-0.3526764","-9.611847","-1.7179565"
"3143244","-0.3431549","-9.445221","-1.6394043"
"3143265","-0.34791565","-9.561859","-1.6322632"
"3143285","-0.39076233","-9.621368","-1.3347168"
"3143305","-0.55500793","-9.661835","-1.3442383"
"3143325","-0.60975647","-9.749908","-1.4204102"
"3143345","-0.5312042","-9.685638","-1.470398"
"3143365","-0.44075012","-9.473785","-1.201416"
"3143385","-0.43122864","-9.404755","-1.0466919"
"3143404","-0.40742493","-9.4809265","-1.1585693"
"3143425","-0.30506897","-9.707062","-1.2037964"
"3143445","-0.1622467","-9.7951355","-1.2228394"
"3143464","-0.11463928","-9.845123","-1.1609497"
"3143486","-0.13606262","-9.609467","-1.0823975"
"3143505","-0.1622467","-9.595184","-1.1252441"
"3143525","-0.24079895","-9.592804","-1.0633545"
"3143545","-0.28126526","-9.654694","-1.0562134"
"3143564","-0.3598175","-9.76181","-1.0014648"
"3143585","-0.4835968","-9.728485","-0.95861816"
"3143605","-0.6383209","-9.6285095","-0.78723145"
"3143625","-0.81684875","-9.702301","-0.8062744"
"3143645","-0.8858795","-9.680878","-0.8800659"
"3143665","-0.79304504","-9.611847","-0.8062744"
"3143685","-0.70973206","-9.576141","-0.6824951"
"3143706","-0.73591614","-9.645172","-0.7158203"
"3143726","-0.80018616","-9.688019","-0.9086304"
"3143746","-0.812088","-9.666595","-1.03479"
"3143766","-0.60261536","-9.611847","-1.2228394"
"3143785","-0.32173157","-9.56662","-1.1918945"
"3143805","-0.27412415","-9.602325","-1.2347412"
"3143826","-0.18367004","-9.676117","-1.2228394"
"3143845","-0.2288971","-9.773712","-1.220459"
"3143865","-0.45741272","-9.657074","-1.2728271"
"3143886","-0.4931183","-9.569","-1.3132935"
"3143905","-0.36695862","-9.521393","-1.2609253"
"3143925","-0.30506897","-9.559479","-1.2085571"
"3143947","-0.3931427","-9.661835","-1.1133423"
"3143965","-0.51930237","-9.721344","-1.0371704"
"3143985","-0.6811676","-9.668976","-1.3394775"
"3144007","-0.4002838","-9.559479","-1.5584717"
"3144026","-0.028945923","-9.578522","-1.4942017"
"3144045","0.056747437","-9.573761","-1.3513794"
"3144067","0.04008484","-9.666595","-1.2823486"
"3144086","-0.076553345","-9.7308655","-1.4465942"
"3144106","-0.1051178","-9.749908","-1.6346436"
"3144127","-0.09559631","-9.714203","-1.7369995"
"3144146","-0.06941223","-9.547577","-1.5965576"
"3144166","-0.1455841","-9.507111","-1.5203857"
"3144187","-0.050369263","-9.497589","-1.3347168"
"3144206","-0.08607483","-9.707062","-1.2585449"
"3144226","-0.06703186","-9.764191","-1.2490234"
"3144247","-0.20271301","-9.747528","-1.239502"
"3144266","-0.24079895","-9.8784485","-1.3370972"
"3144286","-0.30506897","-9.804657","-1.368042"
"3144308","-0.22413635","-9.597565","-1.2609253"
"3144326","-0.009902954","-9.549957","-1.1085815"
"3144346","-0.06465149","-9.609467","-0.86816406"
"3144368","-0.17176819","-9.673737","-0.8157959"
"3144387","-0.25032043","-9.661835","-0.83483887"
"3144406","-0.22413635","-9.668976","-0.92767334"
"3144426","-0.19319153","-9.7308655","-1.0871582"
"3144446","-0.18367004","-9.726105","-0.82055664"
"3144466","-0.3598175","-9.661835","-0.76104736"
"3144487","-0.33125305","-9.635651","-0.90148926"
"3144507","-0.2527008","-9.768951","-0.8562622"
"3144527","-0.22175598","-9.828461","-0.7562866"
"3144548","-0.2955475","-9.721344","-0.8586426"
"3144567","-0.27412415","-9.6475525","-0.7991333"
"3144587","-0.3026886","-9.69516","-0.7182007"
"3144608","-0.47169495","-9.88559","-0.8253174"
"3144627","-0.71687317","-9.985565","-1.3061523"
"3144647","-0.728775","-10.054596","-1.8084106"
"3144668","-0.433609","-10.076019","-2.105957"
"3144688","0.12815857","-10.166473","-2.3154297"
"3144707","0.4637909","-9.842743","-2.5082397"
"3144728","0.73991394","-9.338104","-2.6915283"
"3144747","1.0207977","-8.938202","-3.203308"
"3144767","1.0017548","-8.654938","-3.169983"
"3144788","0.9398651","-9.147675","-3.9197998"
"3144807","1.1207733","-10.311676","-2.6010742"
"3144827","0.27574158","-10.364044","-2.2511597"
"3144849","0.4376068","-9.8594055","-1.9702759"
"3144867","1.394516","-8.935822","-1.8155518"
"3144887","1.8515472","-9.202423","-2.6177368"
"3144907","2.0967255","-9.616608","-3.5889282"
"3144927","0.7494354","-9.000092","-3.5889282"
"3144947","-1.0596466","-7.7742004","-2.7819824"
"3144969","-0.4835968","-7.4409485","-1.8012695"
"3144988","0.41142273","-7.1791077","-1.4061279"
"3145008","0.53282166","-7.405243","-1.7108154"
"3145029","0.6137543","-7.571869","-1.7798462"
"3145048","0.5233002","-8.0289","-2.1392822"
"3145068","-0.17176819","-8.757294","-1.913147"
"3145088","-1.2048492","-9.076263","-1.6227417"
"3145108","-2.6259308","-10.304535","-0.25402832"
"3145128","-4.5421295","-12.484955","-0.65631104"
"3145150","-5.0753326","-15.2152405","-4.967163"
"3145168","-1.7261505","-14.270233","-2.6867676"
"3145188","0.73991394","-9.264313","-0.025512695"
"3145210","3.3749847","-7.7361145","-0.47540283"
"3145228","4.1557465","-7.1386414","-0.9395752"
"3145248","4.807968","-7.759918","-0.5610962"
"3145270","3.8867645","-9.547577","-0.0064697266"
"3145289","1.5730438","-11.394745","0.1720581"
"3145308","-0.121780396","-11.204315","-0.56347656"
"3145329","-1.5119171","-10.056976","-1.0871582"
"3145349","-0.51216125","-9.342865","-0.7348633"
"3145368","0.19004822","-9.273834","-0.9205322"
"3145389","0.24479675","-9.05722","-1.4275513"
"3145408","0.23527527","-8.983429","-0.6348877"
"3145428","0.19480896","-9.721344","0.2720337"
"3145450","0.34239197","-9.666595","0.8290405"
"3145469","0.17100525","-9.830841","0.03161621"
"3145489","0.4471283","-9.921295","-0.43255615"
"3145510","0.41618347","-10.20932","-0.43493652"
"3145529","0.23527527","-10.568756","-0.16595459"
"3145549","0.6042328","-10.421173","0.23156738"
"3145570","1.0469818","-10.454498","0.21728516"
"3145590","1.5730438","-10.0903015","0.26727295"
"3145609","1.772995","-9.585663","0.34106445"
"3145629","1.6563568","-9.797516","0.07684326"
"3145650","1.7967987","-11.023407","0.022094727"
"3145669","1.753952","-12.437347","0.9956665"
"3145690","1.0636444","-12.230255","1.8930664"
"3145709","-0.20271301","-10.990082","2.1691895"
"3145729","-1.4357452","-9.797516","1.9073486"
"3145751","-2.3402863","-8.845367","0.9647217"
"3145769","-3.1258087","-9.092926","-0.18261719"
"3145790","-2.780655","-10.159332","-0.5991821"
"3145809","-0.27412415","-11.004364","-0.042175293"
"3145829","2.6561127","-10.578278","1.133728"
"3145849","3.0845795","-10.437836","1.9311523"
"3145871","1.8229828","-10.354523","1.3265381"
"3145890","1.1755219","-10.052216","0.42199707"
"3145909","-0.22413635","-10.254547","-1.09906"
"3145931","-1.27388","-9.973663","-1.7798462"
"3145950","-1.4452667","-9.216705","-1.4061279"
"3145970","-1.0215607","-9.107208","-1.1490479"
"3145990","-0.40266418","-8.99295","-0.7491455"
"3146010","-0.13130188","-8.883453","-0.4111328"
"3146030","-3.8146973E-4","-8.997711","-0.4611206"
"3146051","-0.28364563","-9.066742","-0.7348633"
"3146070","-0.8025665","-8.9548645","-1.1799927"
"3146091","-1.5976105","-8.462128","-1.3394775"
"3146110","-2.0855865","-7.893219","-1.1752319"
"3146130","-1.6547394","-7.757538","-1.6608276"
"3146152","-1.3500519","-7.90036","-2.9866943"
"3146170","-1.2595978","-7.855133","-3.9245605"
"3146191","-0.031326294","-7.631378","-3.8341064"
"3146210","0.93748474","-7.4480896","-2.4082642"
"3146230","1.1493378","-7.6075745","-0.38256836"
"3146252","1.6182709","-7.6599426","-2.0821533"
"3146270","-1.6023712","-14.101227","-2.8010254"
"3146291","-0.369339","-19.51419","2.7142944"
"3146310","-2.8615875","-12.553986","-3.0462036"
"3146330","-1.4666901","-6.238861","-1.8060303"
"3146352","2.8346405","-6.5863953","0.57910156"
"3146370","4.1747894","-9.683258","2.159668"
"3146391","1.8325043","-11.087677","1.1456299"
"3146411","-0.7144928","-11.228119","-0.9395752"
"3146431","-1.838028","-10.261688","-0.4111328"
"3146452","-1.5547638","-9.435699","-0.14453125"
"3146471","-1.7737579","-8.835846","-1.2466431"
"3146491","-1.0477448","-8.147919","-0.47540283"
"3146511","-0.38362122","-8.335968","-1.1347656"
"3146532","-0.1622467","-9.214325","-1.746521"
"3146551","0.56614685","-9.547577","-1.6394043"
"3146571","0.35429382","-9.338104","-1.2585449"
"3146592","0.04008484","-8.92868","-1.0609741"
"3146612","0.45664978","-9.05722","-1.284729"
"3146632","1.2374115","-9.31192","-0.68963623"
"3146651","1.2397919","-9.6285095","-0.18023682"
"3146671","0.39476013","-10.309296","-0.63964844"
"3146692","0.3066864","-10.690155","-0.16119385"
"3146711","-0.007522583","-11.035309","0.05303955"
"3146731","-0.84303284","-12.00412","0.19110107"
"3146751","-1.7951813","-14.1250305","0.3791504"
"3146771","0.6351776","-15.2152405","0.690979"
"3146792","1.1612396","-14.489227","1.2789307"
"3146811","-1.1762848","-14.18692","0.9313965"
"3146831","-3.3424225","-13.434723","0.16253662"
"3146853","-3.0805817","-11.827972","-1.7536621"
"3146872","-2.6830597","-11.249542","-3.0462036"
"3146892","-0.6740265","-11.711334","-4.029297"
"3146912","2.4490204","-12.370697","-1.8274536"
"3146933","3.6439667","-12.19693","0.24584961"
"3146952","0.64707947","-12.737274","-0.62060547"
"3146972","-8.231705","-15.391388","0.30059814"
"3146993","-6.6273346","-10.733002","1.345581"
"3147012","0.9089203","-11.451874","-4.0126343"
"3147032","5.231674","-12.932465","-5.583679"
"3147052","-1.7713776","-11.573273","-3.6270142"
"3147072","-1.4119415","-7.695648","1.0956421"
"3147093","-0.7621002","-6.686371","-2.9795532"
"3147112","-0.31221008","-7.598053","-4.531555"
"3147134","1.5468597","-7.874176","-2.920044"
"3147152","2.0991058","-6.791107","-1.3656616"
"3147172","-0.24555969","-4.8439636","-1.3275757"
"3147193","-1.254837","-2.4683533","-1.1276245"
"3147212","-1.754715","-0.64260864","-0.16595459"
"3147232","-1.9641876","-0.46646118","-0.030273438"
"3147252","-2.4426422","-0.7044983","-1.4489746"
"3147272","-2.2069855","-1.504303","-4.9124146"
"3147293","-0.99061584","-2.7539978","-7.038086"
"3147313","-0.0717926","-3.5609436","-6.7786255"
"3147333","0.19480896","-4.391693","-7.3189697"
"3147354","0.51615906","-6.084137","-9.644592"
"3147373","2.1157684","-8.09079","-11.472717"
"3147393","0.49473572","-8.09317","-8.840027"
"3147413","-3.4543","-7.0291443","-5.4003906"
"3147434","-8.219803","-19.51419","-19.73677"
"3147453","6.321884","-12.656342","13.628296"
"3147473","-7.3700104","-10.53067","-12.96759"
"3147494","-0.45741272","-3.2967224","-0.03265381"
"3147513","-3.351944","-3.7585144","-2.363037"
"3147533","-1.8404083","-8.302643","-1.3561401"
"3147553","-2.030838","-11.637543","-1.894104"
"3147574","-1.376236","-12.994354","-3.3128052"
"3147593","0.47331238","-10.837738","-2.9962158"
"3147615","-0.21937561","-10.375946","-3.1795044"
"3147633","1.3373871","-9.1857605","-3.388977"
"3147653","3.2631073","-10.618744","-3.8745728"
"3147675","4.108139","-10.680634","-3.2937622"
"3147694","0.57566833","-9.476166","-1.220459"
"3147713","-1.7975616","-8.616852","-2.3796997"
"3147735","-2.9020538","-9.0381775","-2.7510376"
"3147754","-2.0617828","-8.547821","-2.5891724"
"3147774","-0.55500793","-8.79538","-1.9036255"
"3147794","0.554245","-8.595428","-2.0488281"
"3147814","0.766098","-7.4933167","-2.1559448"
"3147834","1.0255585","-6.476898","-2.1011963"
"3147855","1.7253876","-6.5483093","-1.9488525"
"3147874","2.0967255","-7.6385193","-1.9893188"
"3147894","1.1540985","-8.823944","-2.401123"
"3147915","0.24479675","-9.114349","-2.2963867"
"3147934","0.50187683","-9.659454","-1.8869629"
"3147954","0.59233093","-9.361908","-1.958374"
"3147976","0.78038025","-9.576141","-1.322815"
"3147995","0.8398895","-9.873688","-0.4206543"
"3148014","0.15672302","-10.004608","-0.3873291"
"3148036","-0.5907135","-11.197174","-0.33496094"
"3148054","-1.1691437","-12.373077","-0.99194336"
"3148074","-1.2357941","-14.63205","-1.6489258"
"3148094","1.9634247","-16.536346","-0.53967285"
"3148114","3.5035248","-15.010529","1.5193481"
"3148134","-0.009902954","-13.437103","1.5407715"
"3148154","-3.6780548","-12.970551","1.4407959"
"3148174","-4.044632","-11.525665","1.1480103"
"3148194","-2.5449982","-10.347382","-0.48016357"
"3148214","-0.9858551","-10.347382","-0.9729004"
"3148234","0.56614685","-10.856781","-0.03265381"
"3148254","1.1136322","-11.873199","-0.0064697266"
"3148274","2.0800629","-11.478058","-0.6515503"
"3148294","-0.050369263","-12.161224","-1.977417"
"3148314","-1.6475983","-12.0850525","-0.36828613"
"3148334","0.57566833","-10.190277","1.6002808"
"3148355","3.5725555","-9.690399","1.1099243"
"3148376","3.6772919","-10.563995","-3.2009277"
"3148396","-0.32411194","-10.606842","-2.8129272"
"3148416","-1.0763092","-8.826324","-2.0892944"
"3148436","0.7518158","-7.483795","-0.6515503"
"3148456","1.3707123","-7.071991","-1.8512573"
"3148476","0.7779999","-6.898224","-2.6629639"
"3148496","1.016037","-7.0101013","-3.2366333"
"3148516","1.375473","-7.098175","-2.2630615"
"3148536","0.5113983","-6.3007507","-1.6036987"
"3148555","-0.20985413","-5.3962097","-1.6679688"
"3148576","-1.1001129","-5.33432","-1.6203613"
"3148596","-1.5857086","-5.255768","-1.894104"
"3148616","-1.8213654","-5.572357","-3.1485596"
"3148636","-2.10701","-5.8508606","-4.7505493"
"3148658","-1.1620026","-5.410492","-5.6503296"
"3148676","0.82084656","-5.3486023","-5.774109"
"3148696","1.5778046","-5.788971","-5.6884155"
"3148716","1.9491425","-6.557831","-6.564392"
"3148737","3.40831","-7.2790833","-5.595581"
"3148756","0.41618347","-7.2362366","-4.6934204"
"3148776","-2.5640411","-10.554474","-17.792603"
"3148796","5.1697845","-19.51419","7.579773"
"3148816","-7.091507","-16.438751","-11.482239"
"3148836","2.3085785","-7.007721","1.7192993"
"3148856","-1.459549","-6.931549","-5.743164"
"3148876","2.1300507","-8.764435","-0.40637207"
"3148896","1.3254852","-11.649445","-1.3775635"
"3148916","-0.3360138","-10.942474","-1.2490234"
"3148936","-0.73353577","-9.200043","-2.348755"
"3148956","0.2733612","-8.300262","-2.0702515"
"3148976","0.4804535","-8.571625","-2.6748657"
"3148996","1.3159637","-8.762054","-2.3582764"
"3149016","2.1728973","-8.788239","-2.4939575"
"3149037","1.2302704","-9.471405","-2.2797241"
"3149056","1.0398407","-10.104584","-1.1109619"
"3149076","0.98747253","-10.192657","-1.7774658"
"3149097","0.50901794","-9.154816","-2.7748413"
"3149117","0.7351532","-8.374054","-2.2511597"
"3149138","0.9565277","-8.462128","-1.5132446"
"3149157","0.4637909","-8.866791","-0.6325073"
"3149177","0.32810974","-8.643036","-0.3635254"
"3149197","-0.9453888","-8.105072","-0.6420288"
"3149217","-0.8216095","-8.012238","-0.68963623"
"3149237","-0.21699524","-8.554962","-0.24450684"
"3149258","0.073410034","-9.319061","0.16253662"
"3149277","0.04246521","-9.82608","0.11016846"
"3149298","-0.121780396","-10.030792","-0.07550049"
"3149317","-0.3431549","-10.076019","-0.087402344"
"3149337","-1.0048981","-9.857025","0.26965332"
"3149359","-1.3643341","-9.521393","-0.19451904"
"3149377","-0.7002106","-9.171478","0.5124512"
"3149397","-0.26698303","-9.083405","0.79571533"
"3149417","-0.8073273","-9.257172","0.64575195"
"3149437","-1.985611","-9.607086","0.07208252"
"3149457","-2.5021515","-10.330719","-0.51586914"
"3149477","-1.607132","-11.420929","-1.1419067"
"3149498","-0.23127747","-11.863678","-0.91815186"
"3149517","0.43284607","-11.675629","-0.1730957"
"3149539","-0.04084778","-10.994843","-0.3135376"
"3149558","-0.24794006","-10.01413","-1.1204834"
"3149578","0.2733612","-10.559235","-2.9367065"
"3149598","0.07102966","-11.625641","-3.350891"
"3149618","-0.4669342","-11.547089","-3.1937866"
"3149638","0.23527527","-11.970795","-3.222351"
"3149659","3.3559418","-12.161224","-0.14691162"
"3149678","6.4218597","-11.582794","3.0523071"
"3149698","5.403061","-11.051971","3.2403564"
"3149719","1.1350555","-12.354034","-0.82055664"
"3149738","-2.0379791","-12.980072","-4.234009"
"3149758","-4.551651","-11.04007","-1.4870605"
"3149779","-3.6899567","-7.745636","-1.0942993"
"3149799","-2.6259308","-7.400482","-0.88720703"
"3149818","-2.049881","-7.167206","-0.13500977"
"3149840","-2.1546173","-6.8053894","-0.1564331"
"3149858","-2.337906","-6.4673767","-0.5372925"
"3149878","-2.0427399","-5.5366516","-1.0300293"
"3149899","-2.0665436","-4.217926","-1.5513306"
"3149918","-1.2572174","-3.8227844","-2.0702515"
"3149938","-0.16700745","-3.184845","-2.125"
"3149960","0.11149597","-3.127716","-1.7036743"
"3149978","-0.2527008","-3.3871765","-1.9107666"
"3149999","-0.7311554","-4.494049","-3.0247803"
"3150018","-0.65260315","-5.765167","-3.0152588"
"3150039","-0.22175598","-7.214813","-2.6796265"
"3150059","0.41142273","-8.973907","-4.3554077"
"3150079","1.1017303","-10.863922","-5.9121704"
"3150099","1.5254364","-11.180511","-4.1054688"
"3150120","1.3611908","-9.947479","-2.741516"
"3150139","0.51615906","-8.664459","-2.363037"
"3150159","-2.3997955","-10.818695","-2.8700562"
"3150180","-5.0991364","-17.279022","-8.935242"
"3150199","-5.296707","-19.51419","-1.3132935"
"3150220","2.9227142","-13.60849","4.0544434"
"3150239","4.8793793","-7.4933167","1.5050659"
"3150259","1.7372894","-9.235748","-7.5046387"
"3150279","4.2271576","-11.10672","-5.831238"
"3150299","1.5968475","-11.5589905","0.64575195"
"3150319","1.4492645","-14.770111","-2.2321167"
"3150341","0.77323914","-13.184784","-3.1152344"
"3150359","1.2064667","-10.580658","-2.6986694"
"3150379","0.91130066","-8.971527","-2.1345215"
"3150400","-0.5907135","-7.4147644","-3.0319214"
"3150419","-1.1620026","-6.6792297","-3.241394"
"3150440","-0.86683655","-6.4197693","-3.7055664"
"3150460","0.3566742","-5.943695","-2.477295"
"3150479","1.0398407","-5.6009216","-1.8583984"
"3150500","1.1755219","-6.238861","-2.2559204"
"3150520","1.3540497","-7.1410217","-2.7010498"
"3150540","1.6468353","-7.628998","-2.0202637"
"3150561","1.7015839","-7.9622498","-1.8417358"
"3150580","1.4207001","-8.047943","-2.7867432"
"3150600","1.3064423","-7.950348","-3.2009277"
"3150620","0.9398651","-7.091034","-2.939087"
"3150640","1.1326752","-8.0312805","-2.8510132"
"3150661","1.2421722","-10.01413","-3.2056885"
"3150680","0.3566742","-13.93222","-3.1366577"
"3150701","-2.1546173","-17.276642","-3.0652466"
"3150720","-4.0612946","-18.633453","-1.6036987"
"3150740","-5.032486","-17.283783","-1.0800171"
"3150760","-4.896805","-16.793427","-1.2871094"
"3150782","-1.6047516","-13.998871","-4.3720703"
"3150801","0.48997498","-13.108612","-5.5027466"
"3150820","2.1657562","-12.046967","-2.593933"
"3150841","0.78990173","-9.569","-2.182129"
"3150860","-0.75019836","-7.3623962","-2.086914"
"3150880","-1.7832794","-5.5033264","-2.208313"
"3150901","-2.1665192","-4.134613","-2.2297363"
"3150920","-2.076065","-3.6418762","-2.7296143"
"3150942","-1.1548615","-3.8918152","-3.2104492"
"3150961","0.80656433","-4.2464905","-2.9414673"
"3150982","1.2326508","-4.6392517","-2.708191"
"3151001","1.16362","-5.365265","-2.8605347"
"3151021","1.0422211","-6.8696594","-3.0057373"
"3151042","0.701828","-7.931305","-1.8631592"
"3151061","-1.2595978","-9.352386","-0.8634033"
"3151081","-4.6397247","-19.51419","-13.217529"
"3151102","1.4706879","-19.51419","1.6026611"
"3151121","-1.0144196","-8.305023","-2.7557983"
"3151141","-2.0713043","-5.2795715","-1.5775146"
"3151162","2.260971","-6.174591","0.7219238"
"3151181","4.3223724","-9.1214905","1.4312744"
"3151202","2.8679657","-10.385468","0.4124756"
"3151221","-0.8787384","-11.432831","-1.5751343"
"3151243","-2.530716","-11.10434","-2.6082153"
"3151261","-2.2284088","-9.530914","-2.1797485"
"3151281","-1.0167999","-8.581146","-2.5701294"
"3151302","-0.026565552","-8.057465","-2.3273315"
"3151321","0.77323914","-7.8146667","-0.90625"
"3151341","1.2374115","-7.8955994","-0.71343994"
"3151361","1.1874237","-8.369293","-1.387085"
"3151383","0.38285828","-7.90036","-1.6751099"
"3151401","-0.31697083","-7.969391","-3.260437"
"3151423","-0.32411194","-7.83609","-3.2175903"
"3151442","0.69706726","-7.3005066","-1.894104"
"3151462","1.939621","-6.5744934","-0.73724365"
"3151482","2.049118","-5.9222717","-1.1347656"
"3151502","1.2969208","-6.0936584","-1.7203369"
"3151522","0.1995697","-6.495941","-2.2059326"
"3151543","0.08055115","-7.0124817","-1.387085"
"3151562","-0.1455841","-7.674225","-1.5370483"
"3151582","-0.04560852","-7.893219","-2.1273804"
"3151603","0.36857605","-8.247894","-2.8700562"
"3151622","1.0065155","-9.164337","-3.3223267"
"3151642","0.996994","-10.616364","-3.7341309"
"3151664","0.22337341","-14.091705","-3.5151367"
"3151682","-0.58833313","-16.388763","-3.8079224"
"3151703","-1.5357208","-19.297577","-4.6505737"
"3151722","-3.506668","-19.51419","-1.4180298"
"3151743","-2.7996979","-16.134064","-3.1533203"
"3151764","-1.0382233","-10.085541","-4.3863525"
"3151782","0.8184662","-9.4999695","-3.388977"
"3151803","2.011032","-10.056976","-3.0200195"
"3151822","1.4873505","-9.209564","-1.9631348"
"3151842","-0.43122864","-6.284088","-1.560852"
"3151864","-2.0546417","-4.2583923","-1.9655151"
"3151883","-2.833023","-3.6561584","-2.6272583"
"3151903","-2.730667","-3.211029","-2.3677979"
"3151923","-1.4690704","-3.3157654","-2.593933"
"3151943","-0.15034485","-3.1824646","-1.9536133"
"3151963","0.44236755","-3.8251648","-1.6298828"
"3151983","0.1829071","-5.3438416","-2.4415894"
"3152004","-0.40504456","-6.988678","-4.512512"
"3152023","-0.32173157","-7.995575","-5.286133"
"3152043","-0.121780396","-7.714691","-4.138794"
"3152065","0.075790405","-7.817047","-3.7507935"
"3152083","1.1207733","-9.573761","-4.1744995"
"3152104","0.016281128","-9.316681","-4.9433594"
"3152123","-1.14534","-8.2836","-5.057617"
"3152145","-3.1353302","-7.824188","-4.676758"
"3152163","-4.525467","-15.129547","-8.254456"
"3152183","-2.8496857","-17.207611","4.249634"
"3152204","2.401413","-16.791046","9.367432"
"3152223","6.7908173","-17.766998","0.58148193"
"3152243","7.443039","-19.149994","-14.3125"
"3152265","-1.5761871","-9.002472","0.5410156"
"3152284","-0.17652893","-11.242401","3.2927246"
"3152304","-2.9829865","-13.410919","0.6671753"
"3152325","-2.6949615","-12.961029","0.28393555"
"3152344","0.8660736","-11.071014","-2.1607056"
"3152364","2.241928","-10.0260315","-1.5394287"
"3152385","1.2207489","-7.7884827","-1.848877"
"3152404","-0.5978546","-6.514984","-1.9655151"
"3152424","0.44236755","-7.0577087","-2.3130493"
"3152444","2.2657318","-8.224091","-3.3485107"
"3152465","1.9491425","-7.4861755","-3.7650757"
"3152484","0.766098","-7.938446","-4.0959473"
"3152505","0.5447235","-9.514252","-2.1035767"
"3152524","-0.4098053","-12.963409","-2.8605347"
"3152544","-0.42408752","-15.220001","-3.5532227"
"3152566","-2.7330475","-10.663971","2.7714233"
"3152584","-5.3871613","-9.335724","1.0028076"
"3152604","-5.8560944","-10.461639","-2.9819336"
"3152626","-4.044632","-14.422577","-3.6912842"
"3152645","0.8398895","-14.998627","-3.6889038"
"3152664","2.4299774","-12.38974","-3.1271362"
"3152684","1.4159393","-9.671356","-2.734375"
"3152705","-0.22413635","-7.8194275","-2.0083618"
"3152724","-0.8644562","-5.815155","-1.2799683"
"3152746","-0.9025421","-4.3107605","-1.4085083"
"3152765","-0.6383209","-3.6133118","-2.1392822"
"3152785","-0.65260315","-4.186981","-3.1247559"
"3152805","-1.1691437","-4.225067","-3.6103516"
"3152825","-1.0929718","-4.153656","-3.465149"
"3152845","-0.31221008","-4.184601","-2.0393066"
"3152866","0.030563354","-4.3559875","-2.0083618"
"3152885","0.099594116","-5.803253","-2.1773682"
"3152905","-0.82398987","-8.152679","-2.8057861"
"3152925","0.06150818","-8.969147","-3.4175415"
"3152946","0.18766785","-7.5099792","-3.286621"
"3152965","0.1995697","-6.2483826","-2.3773193"
"3152987","0.016281128","-6.374542","-3.048584"
"3153005","-0.52168274","-7.2219543","-3.8579102"
"3153026","-0.04322815","-8.459747","-5.1099854"
"3153045","0.18052673","-9.278595","-5.0290527"
"3153065","-1.7118683","-9.204803","-5.500366"
"3153087","-3.6447296","-14.751068","-5.4718018"
"3153105","0.2733612","-16.162628","-2.8224487"
"3153125","2.3490448","-19.51419","5.899231"
"3153145","1.330246","-19.457062","-4.345886"
"3153165","-1.6356964","-12.794403","-3.324707"
"3153185","0.8660736","-9.307159","-0.14453125"
"3153205","-1.1286774","-9.133392","1.1027832"
"3153225","-2.6997223","-10.033173","1.9240112"
"3153245","-2.4235992","-13.518036","-1.137146"
"3153265","-0.38362122","-13.767975","-0.33258057"
"3153285","1.1517181","-11.378082","-0.74438477"
"3153305","2.3538055","-9.364288","-0.9729004"
"3153325","1.5968475","-7.8836975","-1.5965576"
"3153345","1.144577","-6.6720886","-1.451355"
"3153365","0.8827362","-6.7530212","-2.6796265"
"3153386","1.4873505","-7.1529236","-2.4749146"
"3153406","1.5754242","-8.066986","-1.8203125"
"3153427","1.4849701","-8.697784","-1.4346924"
"3153447","1.2136078","-7.7503967","-1.6013184"
"3153466","0.7494354","-6.5126038","-2.5844116"
"3153486","1.0065155","-7.0243835","-2.0512085"
"3153506","2.3918915","-8.726349","-1.5846558"
"3153527","2.8727264","-9.195282","-1.6156006"
"3153547","1.772995","-8.623993","-2.086914"
"3153567","1.22789","-7.759918","-1.6013184"
"3153587","1.4897308","-7.662323","-2.0512085"
"3153607","1.7706146","-8.276459","-2.3249512"
"3153627","1.8586884","-9.18338","-2.2511597"
"3153647","2.272873","-9.402374","-2.1416626"
"3153667","2.0324554","-9.266693","-3.1866455"
"3153687","1.9372406","-9.085785","-3.1533203"
"3153707","1.2493134","-9.916534","-3.7650757"
"3153727","0.82084656","-11.723236","-4.4625244"
"3153747","-0.04798889","-14.9010315","-5.043335"
"3153767","-1.3643341","-19.51419","-5.0647583"
"3153788","0.6113739","-17.33139","-5.543213"
"3153808","1.4611664","-12.658722","-5.871704"
"3153828","1.8087006","-9.966522","-5.4122925"
"3153848","1.0826874","-8.526398","-4.7457886"
"3153868","0.75419617","-7.7099304","-4.3078003"
"3153888","0.2828827","-7.252899","-4.4387207"
"3153908","0.1257782","-7.7313538","-3.9697876"
"3153928","0.06388855","-8.231232","-3.619873"
"3153948","1.144577","-7.5813904","-3.177124"
"3153968","2.6180267","-7.060089","-3.7650757"
"3153988","3.9058075","-7.5694885","-5.13855"
"3154007","4.286667","-7.188629","-5.3289795"
"3154028","3.5963593","-6.6578064","-5.433716"
"3154047","2.2371674","-6.5245056","-5.6312866"
"3154067","1.35643","-6.8434753","-5.955017"
"3154087","1.208847","-7.045807","-5.8026733"
"3154108","1.1517181","-7.033905","-5.6122437"
"3154127","1.2516937","-6.9981995","-5.3218384"
"3154149","1.4040375","-7.045807","-5.179016"
"3154168","0.67326355","-7.1315002","-5.3242188"
"3154188","0.20195007","-7.12912","-5.221863"
"3154208","0.16148376","-7.1219788","-5.2004395"
"3154228","0.16148376","-7.2814636","-5.455139"
"3154248","0.19718933","-7.4361877","-5.6312866"
"3154269","0.30192566","-7.564728","-5.3623047"
"3154289","0.54948425","-7.1719666","-5.447998"
"3154309","0.6685028","-7.2433777","-5.8859863"
"3154328","1.6277924","-8.02652","-6.897644"
"3154350","0.81370544","-8.819183","-10.580078"
"3154368","0.21385193","-11.68277","-14.217285"
"3154388","2.677536","-12.506378","-2.5796509"
"3154409","-1.3310089","-11.1614685","-9.213745"
"3154428","2.030075","-8.097931","-5.26947"
"3154448","1.1588593","-7.0743713","-5.1290283"
"3154470","2.151474","-8.54068","-2.5368042"
"3154488","0.50901794","-9.126251","-1.0252686"
"3154509","-0.4764557","-9.690399","-2.4630127"
"3154528","-0.48597717","-10.361664","-2.06073"
"3154548","0.5137787","-11.085297","-1.8345947"
"3154570","0.83036804","-11.611359","-2.3344727"
"3154588","0.89463806","-10.780609","-2.7867432"
"3154609","1.3016815","-9.861786","-2.7248535"
"3154629","1.4706879","-10.175995","-2.6558228"
"3154649","1.4087982","-9.528534","-2.734375"
"3154670","1.6515961","-8.914398","-2.5463257"
"3154689","1.5040131","-8.276459","-2.1749878"
"3154709","0.932724","-7.4361877","-1.6251221"
"3154730","0.5875702","-6.950592","-1.2942505"
"3154749","0.49235535","-7.1315002","-0.7562866"
"3154769","0.35191345","-7.226715","-1.329956"
"3154789","0.9160614","-7.4266663","-0.97528076"
"3154809","0.9636688","-7.8051453","-0.9371948"
"3154831","0.6208954","-8.355011","-1.4299316"
"3154849","-0.097976685","-9.1857605","-1.5037231"
"3154869","-0.62879944","-9.7118225","-1.5656128"
"3154891","-1.0572662","-9.399994","-2.3082886"
"3154910","-0.5074005","-8.888214","-1.7608032"
"3154929","0.049606323","-8.86441","-1.1133423"
"3154949","-0.19319153","-9.754669","-0.7491455"
"3154969","-0.3098297","-10.102203","0.1482544"
"3154989","-0.2955475","-10.421173","0.30773926"
"3155010","-0.4002838","-11.347137","-0.16595459"
"3155029","-0.73591614","-12.413544","-0.7229614"
"3155051","-1.9261017","-12.851532","-1.0895386"
"3155069","-3.3924103","-14.013153","-0.64678955"
"3155090","0.56614685","-15.53421","0.38153076"
"3155110","4.6937103","-12.799164","3.6759644"
"3155130","-2.4426422","-9.599945","1.9835205"
"3155151","-6.3369293","-10.383087","-0.53015137"
"3155170","-2.9258575","-11.261444","-0.7062988"
"3155190","-0.35743713","-11.587555","-1.3847046"
"3155211","2.1205292","-11.608978","-2.163086"
"3155230","3.3678436","-11.204315","-2.3535156"
"3155250","3.658249","-10.0784","-0.77770996"
"3155271","3.1083832","-9.078644","1.3027344"
"3155290","1.1207733","-9.354767","1.1408691"
"3155311","-2.9449005","-10.2117","1.3241577"
"3155330","-2.5092926","-10.066498","2.3596191"
"3155350","0.40428162","-10.202179","1.9144897"
"3155372","2.25383","-10.111725","-2.0821533"
"3155390","1.1921844","-8.833466","-1.3323364"
"3155411","0.6923065","-7.8456116","0.4934082"
"3155430","-0.017044067","-7.9146423","1.3955688"
"3155450","-0.13606262","-7.790863","0.395813"
"3155472","-0.11225891","-7.681366","-0.7015381"
"3155490","0.63279724","-7.102936","-1.2299805"
"3155511","0.61613464","-7.3838196","-1.7298584"
"3155531","0.7994232","-7.6408997","-0.7967529"
"3155550","0.7161102","-7.526642","-0.40161133"
"3155571","0.5875702","-7.3957214","0.36010742"
"3155591","0.097213745","-7.2933655","-0.10406494"
"3155611","-0.48597717","-7.7622986","-0.94433594"
"3155631","-0.9382477","-8.362152","-1.6060791"
"3155652","-0.80970764","-8.633514","-1.6275024"
"3155671","-0.76686096","-8.5121155","-1.4537354"
"3155691","-1.292923","-8.638275","-1.9940796"
"3155712","-1.5642853","-9.11673","-2.38208"
"3155731","0.013900757","-10.171234","-2.234497"
"3155751","-0.41932678","-10.5520935","-1.7631836"
"3155772","-3.7399445","-10.806793","-4.831482"
"3155791","-4.8753815","-9.380951","-3.6079712"
"3155812","-4.063675","-10.961517","-1.7869873"
"3155831","-1.6809235","-11.87558","2.8047485"
"3155853","2.0562592","-10.882965","0.10064697"
"3155871","4.4056854","-10.252167","-3.1033325"
"3155891","2.9869843","-8.300262","-0.5848999"
"3155912","1.0731659","-8.495453","-0.18023682"
"3155931","-0.64546204","-9.876068","0.6338501"
"3155951","0.3162079","-10.311676","1.050415"
"3155973","0.23527527","-10.266449","0.79333496"
"3155991","-0.5930939","-10.149811","0.16967773"
"3156012","-0.35743713","-9.735626","-0.34924316"
"3156031","-0.2622223","-9.614227","-0.40875244"
"3156053","0.19242859","-9.702301","-0.26831055"
"3156072","-0.3598175","-9.573761","-0.008850098"
"3156092","-0.7811432","-9.688019","-0.24212646"
"3156112","-0.9049225","-9.683258","-0.018371582"
"3156132","-1.1524811","-9.733246","-0.4373169"
"3156152","-0.8977814","-9.640411","-0.27783203"
"3156172","-0.9192047","-9.947479","-0.21118164"
"3156193","-1.1524811","-10.0260315","-0.068359375"
"3156212","-1.1381989","-9.802277","-0.2897339"
"3156233","-1.254837","-9.857025","-0.25878906"
"3156252","-1.1548615","-9.840363","-0.23022461"
"3156272","-0.96681213","-9.63327","0.31726074"
"3156294","-1.2167511","-9.63327","0.48388672"
"3156313","-1.5357208","-9.828461","0.14587402"
"3156332","-1.6356964","-9.895111","-0.09454346"
"3156354","-1.3857574","-9.780853","-0.46826172"
"3156372","-0.8216095","-9.718964","-0.61346436"
"3156392","-0.34077454","-9.707062","-0.65631104"
"3156413","0.094833374","-9.666595","-0.47540283"
"3156432","0.054367065","-9.940338","-0.43493652"
"3156452","-0.121780396","-9.807037","-0.4873047"
"3156474","-0.16938782","-9.733246","-0.9395752"
"3156492","0.023422241","-9.707062","-1.0443115"
"3156513","-0.16700745","-9.799896","-0.74676514"
"3156532","-0.68592834","-9.764191","-0.53967285"
"3156554","-1.0691681","-9.685638","-0.29211426"
"3156573","-0.9691925","-9.837982","-0.32305908"
"3156593","-0.90016174","-10.106964","-0.6348877"
"3156613","-0.7406769","-10.023651","-0.7729492"
"3156633","-0.47407532","-9.916534","-0.8753052"
"3156653","-0.27650452","-9.945099","-0.6586914"
"3156674","-0.7240143","-9.685638","-0.8657837"
"3156693","-1.2619781","-9.397614","-1.0585938"
"3156713","-1.2429352","-9.492828","-1.0942993"
"3156733","-0.76686096","-9.05484","-0.83721924"
"3156755","-0.8454132","-9.064362","-0.9967041"
"3156773","-0.8192291","-9.278595","-1.182373"
"3156793","-0.9049225","-9.461884","-1.3561401"
"3156814","-1.1929474","-9.833221","-1.7631836"
"3156833","-1.5571442","-10.330719","-1.8012695"
"3156854","-1.5119171","-10.449738","-1.6060791"
"3156874","-1.5333405","-10.040314","-1.3942261"
"3156894","-1.27388","-9.640411","-1.3966064"
"3156914","-1.4738312","-9.880829","-1.7036743"
"3156933","-1.6214142","-10.20932","-1.7727051"
"3156955","-1.7309113","-10.056976","-1.7441406"
"3156973","-2.0094147","-9.754669","-1.7822266"
"3156993","-2.0165558","-9.238129","-1.3632813"
"3157014","-1.7666168","-8.828705","-1.7608032"
"3157034","-1.3786163","-8.5763855","-1.617981"
"3157054","-1.6261749","-8.66922","-1.7393799"
"3157075","-2.0475006","-8.971527","-2.117859"
"3157094","-1.921341","-9.088165","-2.2630615"
"3157114","-0.728775","-8.969147","-1.8679199"
"3157135","-0.15272522","-8.869171","-1.4918213"
"3157154","-0.75019836","-9.671356","-1.6703491"
"3157174","-0.80018616","-9.514252","-1.9512329"
"3157195","-0.664505","-9.345245","-2.4606323"
"3157215","-0.51930237","-9.138153","-2.1916504"
"3157234","-0.5502472","-9.154816","-1.6727295"
"3157254","-1.0334625","-9.95224","-1.9940796"
"3157276","-1.2667389","-10.747284","-2.1464233"
"3157294","-0.17414856","-10.2117","-1.6798706"
"3157315","0.3138275","-9.264313","-1.7346191"
"3157334","-0.3264923","-9.271454","-1.9607544"
"3157354","-0.7978058","-9.340485","-1.7774658"
"3157374","-0.9358673","-9.457123","-1.977417"
"3157396","-0.7573395","-9.492828","-1.9464722"
"3157414","-0.5645294","-9.469025","-1.7846069"
"3157436","-0.55500793","-9.409515","-1.6870117"
"3157455","-0.54548645","-9.452362","-1.6013184"
"3157474","-0.5573883","-9.459503","-1.7322388"
"3157496","-0.6549835","-9.414276","-1.7227173"
"3157515","-0.6383209","-9.419037","-1.6798706"
"3157535","-0.6954498","-9.509491","-1.7250977"
"3157556","-0.61213684","-9.6475525","-1.6489258"
"3157575","-0.664505","-9.640411","-1.7560425"
"3157595","-0.7121124","-9.657074","-1.727478"
"3157616","-0.76686096","-9.616608","-1.8012695"
"3157635","-0.87397766","-9.576141","-1.8869629"
"3157655","-0.80970764","-9.573761","-1.7893677"
"3157676","-0.7144928","-9.559479","-1.7393799"
"3157695","-0.70259094","-9.545197","-1.7869873"
"3157715","-0.72639465","-9.654694","-1.7155762"
"3157735","-0.6978302","-9.640411","-1.6774902"
"3157757","-0.683548","-9.590424","-1.5775146"
"3157775","-0.75019836","-9.492828","-1.6132202"
"3157795","-0.63594055","-9.483307","-1.5917969"
"3157816","-0.5740509","-9.523773","-1.6108398"
"3157835","-0.58595276","-9.585663","-1.7608032"
"3157857","-0.47883606","-9.576141","-1.7250977"
"3157875","-0.53596497","-9.595184","-1.765564"
"3157895","-0.581192","-9.485687","-1.7774658"
"3157916","-0.5502472","-9.56662","-1.708435"
"3157936","-0.5097809","-9.63089","-1.7703247"
"3157956","-0.600235","-9.580902","-1.5703735"
"3157976","-0.6240387","-9.528534","-1.4632568"
"3157997","-0.683548","-9.44046","-1.4584961"
"3158016","-0.69306946","-9.483307","-1.6251221"
"3158037","-0.6502228","-9.521393","-1.6251221"
"3158056","-0.61213684","-9.7118225","-1.6774902"
"3158076","-0.68592834","-9.5642395","-1.5013428"
"3158097","-0.8858795","-9.435699","-1.5870361"
"3158117","-0.959671","-9.609467","-1.746521"
"3158136","-1.0001373","-9.576141","-1.6893921"
"3158156","-0.94062805","-9.699921","-1.7346191"
"3158176","-0.61927795","-9.666595","-1.7155762"
"3158196","-0.49787903","-9.726105","-1.5394287"
"3158216","-0.47169495","-9.654694","-0.87768555"
"3158236","-0.78590393","-9.5642395","-1.3442383"
"3158256","-1.3833771","-9.592804","-1.894104"
"3158276","-1.6428375","-9.442841","-1.8512573"
"3158296","-1.7880402","-9.578522","-1.6703491"
"3158316","-1.5190582","-9.573761","-1.3204346"
"3158336","-1.2000885","-9.307159","-1.727478"
"3158357","-1.3905182","-9.43808","-1.6513062"
"3158376","-1.4143219","-9.419037","-1.5822754"
"3158396","-1.2572174","-9.359528","-1.682251"
"3158417","-1.2619781","-9.435699","-1.7774658"
"3158437","-1.2167511","-9.678497","-1.7584229"
"3158457","-0.8811188","-9.671356","-1.6132202"
