"Time","AccelX","AccelY","AccelZ"
"16986387","-1.5999908","6.2842712","7.4559937"
"16986588","-1.7428131","6.0628967","6.1015625"
"16986789","-5.5680695","6.205719","6.9608765"
"16986990","-1.523819","7.4292297","3.321289"
"16987191","-1.7523346","7.7672424","2.3619995"
"16987391","-2.3117218","7.2673645","9.572144"
"16987592","-0.6811676","6.950775","6.239624"
"16987793","-1.2691193","7.098358","6.7442627"
"16987994","-1.5166779","7.0745544","6.739502"
"16988194","-1.716629","6.8936462","6.79187"
"16988395","-0.6811676","7.2483215","8.036804"
"16988596","-0.21937561","5.981964","8.20343"
"16988797","1.0136566","11.016449","8.991333"
"16988997","0.6137543","3.6730042","5.8706665"
"16989198","-0.70259094","6.865082","5.020874"
"16989399","-0.22175598","5.017914","9.203186"
"16989600","2.998886","1.6949158","13.121277"
"16989800","3.8558197","2.2781067","5.861145"
"16990001","19.260986","-2.0184631","0.3196411"
"16990202","3.0203094","0.7451477","-3.2485352"
"16990403","6.5670624","-1.29245","-8.856689"
"16990603","6.776535","-6.8887024","-3.7912598"
"16990805","0.3471527","-18.143097","6.303894"
"16991006","-4.075577","-13.594208","3.3498535"
"16991207","-0.37886047","-13.720367","-0.7182007"
"16991407","-1.4666901","-8.635895","-3.9055176"
"16991608","-0.51216125","-7.5242615","-3.612732"
"16991809","-2.3141022","-8.633514","-1.6608276"
"16992009","-3.9708405","-4.134613","-3.7745972"
"16992210","-1.633316","-6.8268127","-9.230408"
"16992411","-4.0850983","-1.190094","-9.111389"
"16992611","-0.7002106","3.075531","-8.873352"
"16992812","-2.3855133","-1.318634","-9.635071"
"16993013","-2.2212677","-0.17129517","-9.1828"
"16993213","-2.81398","-0.7211609","-9.94928"
"16993415","-2.7401886","-0.4569397","-9.5946045"
"16993615","-2.7092438","-0.35458374","-9.532715"
"16993815","-2.8020782","-0.3831482","-9.608887"
"16994016","-2.7663727","-0.35934448","-9.611267"
"16994217","-2.7544708","-0.38076782","-9.599365"
"16994417","-2.7925568","-0.3831482","-9.656494"
"16994618","-2.74971","-0.39505005","-9.616028"
"16994819","-2.7663727","-0.42837524","-9.56366"
"16995019","-2.7711334","-0.4069519","-9.556519"
"16995220","-2.761612","-0.3736267","-9.649353"
"16995421","-2.730667","-0.45217896","-9.606506"
"16995621","-2.7354279","-0.39505005","-9.523193"
"16995822","-2.742569","-0.43789673","-9.556519"
"16996023","-2.8115997","-0.38790894","-9.585083"
"16996223","-2.973465","-0.48788452","-9.456543"
"16996424","-2.8092194","-0.4164734","-9.604126"
"16996624","-2.8853912","-0.4164734","-9.554138"
"16996825","-2.8568268","-0.433136","-9.613647"
"16997026","-2.8425446","-0.43551636","-9.570801"
"16997226","-2.8830109","-0.4640808","-9.482727"
"16997427","-2.8092194","-0.46170044","-9.580322"
"16997627","-2.844925","-0.45932007","-9.554138"
"16997828","-2.8163605","-0.43789673","-9.527954"
"16998028","-2.8354034","-0.433136","-9.577942"
"16998229","-2.8853912","-0.42837524","-9.535095"
"16998429","-2.833023","-0.433136","-9.56366"
"16998630","-2.825882","-0.46170044","-9.596985"
"16998831","-2.8282623","-0.45932007","-9.539856"
"16999031","-2.833023","-0.44265747","-9.525574"
"16999232","-2.9068146","-0.4640808","-9.616028"
"16999432","-2.9210968","0.14291382","-9.377991"
"16999633","-4.3493195","-0.1927185","-9.854065"
"16999833","-2.345047","-2.5112","-9.394653"
"17000034","-1.5904694","-4.903473","-7.6879272"
"17000234","-2.0903473","-6.674469","-6.719116"
"17000435","-2.0165558","-7.0815125","-6.6381836"
"17000635","-1.5809479","-7.669464","-6.171631"
"17000836","-1.4619293","-9.307159","-4.729126"
"17001036","-0.8787384","-8.385956","-0.66345215"
"17001237","-1.6285553","-9.82608","-1.303772"
"17001437","1.4706879","-9.473785","0.6814575"
"17001638","-0.90730286","-9.618988","0.107788086"
"17001838","-0.49549866","-9.597565","0.1315918"
"17002039","-1.3881378","-9.676117","-3.8721924"
"17002239","0.07102966","-9.661835","-0.08026123"
"17002442","-0.10273743","-9.714203","-0.16357422"
"17002641","-0.11225891","-9.666595","0.14587402"
"17002841","-0.119400024","-9.702301","-0.015991211"
"17003041","0.34239197","-9.75705","0.103027344"
"17003241","1.208847","-9.549957","-2.1535645"
"17003442","1.9420013","-11.485199","-2.881958"
"17003642","7.814377","-10.514008","-4.0126343"
"17003843","-1.5547638","-11.101959","-0.5872803"
"17004043","7.64299","-12.751556","-19.73677"
"17004244","5.7982025","-13.258575","0.67907715"
"17004444","6.7075043","-9.242889","2.8833008"
"17004645","-3.589981","-5.3509827","4.797119"
"17004845","-5.7870636","-17.474213","-2.1202393"
"17005046","6.114792","-4.0227356","-8.068787"
"17005246","3.4297333","-15.153351","-2.0321655"
"17005447","-3.8232574","4.9845886","19.262634"
"17005647","-4.711136","-16.117401","-4.902893"
"17005848","-0.959671","-19.51419","5.6849976"
"17006051","-4.346939","4.86557","4.316284"
"17006248","9.318771","-13.399017","2.2739258"
"17006449","3.0726776","0.28097534","-1.4108887"
"17006649","6.68132","-14.929596","-2.1345215"
"17006851","-7.3628693","-3.896576","19.262634"
"17007050","-2.1236725","-18.397797","-6.273987"
"17007251","3.7653656","-16.291168","1.8930664"
"17007451","-7.7032623","5.0464783","4.7614136"
"17007652","-5.263382","-4.5916443","19.262634"
"17007852","10.404221","-1.7756653","-3.2890015"
"17008053","-0.12892151","-19.51419","5.8778076"
"17008253","-2.6473541","-6.3197937","-5.6170044"
"17008454","1.4825897","-14.401154","-0.5253906"
"17008654","0.5804291","-9.549957","4.135376"
"17008855","7.776291","-11.23288","-3.6531982"
"17009055","5.1626434","-19.51419","1.864502"
"17009256","-5.4014435","-1.7280579","4.8637695"
"17009456","-2.6568756","-9.618988","-1.2061768"
"17009657","7.140732","-1.0068054","-3.2842407"
"17009857","6.5670624","-19.51419","-2.215454"
"17010058","-8.469742","-9.618988","17.460693"
"17010261","-6.1845856","-9.897491","-9.406555"
"17010459","-8.988663","-18.078827","-6.2597046"
"17010659","-3.96846","4.0800476","1.1218262"
"17010860","8.895065","-17.676544","6.0634766"
"17011061","-3.6613922","-4.551178","-6.1835327"
"17011261","-0.3098297","-7.207672","4.3377075"
"17011461","-5.475235","-9.921295","7.510742"
"17011662","3.889145","-8.131256","-9.706482"
"17011863","-4.7658844","-19.51419","2.576233"
"17012062","6.3123627","-3.7799377","-4.169739"
"17012263","7.0693207","-19.473724","0.47198486"
"17012464","1.330246","-10.33548","0.7671509"
"17012664","0.12815857","-8.685883","0.5124512"
"17012865","-6.3059845","-10.135529","5.066101"
"17013065","1.3873749","-9.11911","0.036376953"
"17013266","-3.063919","-9.7308655","1.2765503"
"17013466","-1.6214142","-8.6596985","-1.727478"
"17013667","-1.9308624","-11.9374695","-1.7631836"
"17013869","-0.76686096","-9.283356","0.04827881"
"17014069","-1.7047272","-9.645172","0.3791504"
"17014268","-1.1834259","-9.507111","0.09112549"
"17014469","-1.4762115","-9.6285095","0.21252441"
"17014669","-1.6547394","-9.616608","0.0030517578"
"17014870","-1.5595245","-9.671356","0.35772705"
"17015070","-1.27388","-9.576141","-0.039794922"
"17015271","-1.5809479","-9.573761","0.16967773"
"17015471","-1.2953033","-9.621368","0.1149292"
"17015672","-1.6404572","-9.5642395","0.15539551"
"17015872","-1.6452179","-9.614227","0.038757324"
"17016073","-1.4666901","-9.618988","-0.05407715"
"17016274","-1.5928497","-9.588043","0.13873291"
"17016474","-1.671402","-9.685638","0.07208252"
"17016675","-1.421463","-9.657074","0.05303955"
"17016875","-1.3000641","-9.583282","-0.011230469"
"17017076","-1.6261749","-9.666595","0.11730957"
"17017276","-1.4428864","-9.588043","-0.12072754"
"17017477","-1.440506","-9.604706","-0.039794922"
"17017677","-1.421463","-9.640411","0.038757324"
"17017878","-1.4976349","-9.597565","-0.020751953"
"17018078","-1.4143219","-9.649933","0.0982666"
"17018279","-1.5214386","-9.649933","0.06732178"
"17018479","-1.4547882","-9.547577","-0.03741455"
"17018680","-1.588089","-9.640411","0.0030517578"
"17018881","-1.3667145","-9.678497","0.083984375"
"17019081","-1.4524078","-9.595184","0.033996582"
"17019282","-1.3952789","-9.599945","0.11730957"
"17019482","-1.4333649","-9.56662","-0.05883789"
"17019683","-1.376236","-9.609467","-0.09692383"
"17019883","-1.4286041","-9.618988","-0.0826416"
"17020084","-1.4928741","-9.661835","-0.12310791"
"17020285","-1.3976593","-9.614227","-0.011230469"
"17020485","-1.4928741","-9.604706","-0.1159668"
"17020686","-1.4714508","-9.573761","-0.05883789"
"17020886","-1.4524078","-9.614227","-0.025512695"
"17021087","-1.4547882","-9.592804","-0.14929199"
"17021288","-1.4190826","-9.611847","-0.14453125"
"17021488","-1.3952789","-9.609467","-0.05883789"
"17021689","-1.4452667","-9.623749","-0.01361084"
"17021890","-1.4357452","-9.602325","-0.13500977"
"17022090","-1.4048004","-9.602325","-0.05883789"
"17022291","-1.4190826","-9.607086","-0.05883789"
"17022492","-1.4643097","-9.604706","-0.10882568"
"17022692","-1.6190338","-9.7308655","-0.08502197"
"17022893","-1.3786163","-9.635651","-0.16833496"
"17023094","-2.7830353","-9.690399","0.84332275"
"17023294","-2.9496613","-10.040314","3.2784424"
"17023494","1.6634979","-10.192657","-3.5698853"
"17023695","-0.6502228","-8.54068","-4.017395"
"17023896","-2.1498566","-14.006012","-4.429199"
"17024097","-0.28126526","-8.895355","-1.6917725"
"17024297","0.54948425","-9.792755","0.986145"
"17024501","0.59947205","-10.675873","-2.2630615"
"17024698","-1.8332672","-10.951996","0.26727295"
"17024899","-1.8856354","-7.3719177","-0.23260498"
"17025100","0.39476013","-9.976044","-4.721985"
"17025300","2.6275482","-11.708954","-0.68725586"
"17025501","-0.85731506","-9.554718","-0.0993042"
"17025702","2.030075","-10.249786","-1.265686"
"17025902","0.44950867","-11.370941","2.1549072"
"17026103","-1.7094879","-7.571869","-1.2347412"
"17026304","4.377121","-11.280487","-6.1882935"
"17026504","1.1469574","-11.099579","2.628601"
"17026706","-2.594986","-9.461884","0.60528564"
"17026906","0.63279724","-9.835602","-1.1633301"
"17027106","-1.5595245","-11.920807","0.5576782"
"17027307","-1.2810211","-7.4266663","-2.0964355"
"17027508","-2.6068878","-11.501862","-1.0062256"
"17027708","-1.0501251","-10.195038","0.6314697"
"17027911","0.16148376","-10.1736145","0.54577637"
"17028111","-0.37886047","-9.668976","1.7454834"
"17028310","0.6708832","-9.916534","0.6338501"
"17028511","0.63041687","-11.463776","2.0596924"
"17028712","-1.0667877","-8.54306","0.5600586"
"17028912","4.5009003","-10.3402405","-7.0666504"
"17029113","-2.5473785","-10.359283","6.3062744"
"17029315","-0.09083557","-9.423798","-0.21118164"
"17029515","2.57518","-9.95224","-0.3706665"
"17029716","-0.14320374","-12.154083","1.5479126"
"17029917","-1.2572174","-6.4078674","-1.8036499"
"17030116","6.319504","-14.579681","-9.673157"
"17030317","1.6301727","-13.377594","2.2358398"
"17030521","-0.84065247","-9.009613","0.6171875"
"17030721","1.016037","-9.723724","-0.26831055"
"17030921","-3.685196","-12.70871","1.4122314"
"17031120","-2.1641388","-6.2721863","-0.35638428"
"17031320","6.083847","-13.199066","-8.135437"
"17031521","4.267624","-14.289276","2.6547852"
"17031722","-0.41932678","-9.002472","0.026855469"
"17031922","0.9017792","-10.064117","0.21014404"
"17032123","-3.5019073","-9.430939","4.1401367"
"17032324","-1.5642853","-8.171722","-0.9824219"
"17032525","1.4944916","-8.21933","-3.6412964"
"17032725","-3.949417","-2.6897278","2.36438"
"17032926","-0.15034485","-10.042694","-0.6182251"
"17033127","-0.12892151","-9.904633","0.66955566"
"17033327","-1.9380035","-10.187897","1.2075195"
"17033531","-1.9261017","-9.733246","-0.065979004"
"17033729","-1.1286774","-8.985809","0.2791748"
"17033929","-1.4524078","-9.776093","-0.4777832"
"17034130","-1.0191803","-9.452362","0.036376953"
"17034331","-1.8094635","-9.63089","-0.05645752"
"17034531","-1.1810455","-9.673737","-0.13977051"
"17034732","-1.4904938","-9.63089","0.19824219"
"17034933","-1.5952301","-9.542816","0.1887207"
"17035134","-1.4762115","-9.542816","0.2053833"
"17035334","-1.5142975","-9.559479","0.038757324"
"17035535","-1.5190582","-9.640411","-0.023132324"
"17035736","-1.5833282","-9.611847","-0.011230469"
"17035936","-1.4785919","-9.685638","0.07684326"
"17036137","-1.5190582","-9.569","0.045898438"
"17036341","-1.6166534","-9.607086","0.022094727"
"17036539","-1.4785919","-9.597565","0.005432129"
"17036739","-1.550003","-9.609467","0.022094727"
"17036940","-1.4571686","-9.661835","0.05303955"
"17037141","-1.3905182","-9.585663","-0.03503418"
"17037341","-1.376236","-9.583282","-0.0064697266"
"17037542","-1.4286041","-9.607086","-0.01361084"
"17037743","-1.4428864","-9.602325","-0.065979004"
"17037943","-1.4286041","-9.6475525","-0.13500977"
"17038144","-1.3357697","-9.573761","0.017333984"
"17038345","-1.4809723","-9.657074","-0.065979004"
"17038546","-1.3024445","-9.611847","-0.12072754"
"17038746","-1.3690948","-9.611847","0.041137695"
"17038947","-1.5261993","-9.595184","-0.0017089844"
"17039151","-1.4381256","-9.583282","0.062561035"
"17039348","-1.40242","-9.607086","0.04827881"
"17039551","-1.5261993","-9.599945","0.07684326"
"17039750","-1.6928253","-9.552338","0.043518066"
"17039950","-1.4476471","-9.604706","0.107788086"
"17040151","-1.5119171","-9.580902","0.07208252"
"17040352","-1.4262238","-9.616608","-0.03265381"
"17040553","-1.4928741","-9.611847","0.08874512"
"17040755","-1.3333893","-9.592804","-0.051696777"
"17040955","-1.4452667","-9.609467","0.13397217"
"17041155","-1.4357452","-9.571381","0.07684326"
"17041356","-1.3905182","-9.616608","0.060180664"
"17041556","-1.4167023","-9.607086","-0.023132324"
"17041757","-1.4167023","-9.602325","0.045898438"
"17041958","-1.5761871","-9.602325","0.019714355"
"17042159","-1.3524323","-9.614227","-0.0040893555"
"17042360","-1.588089","-9.571381","0.20776367"
"17042561","-1.4738312","-9.6285095","0.03161621"
"17042761","-1.4428864","-9.640411","-0.030273438"
"17042963","-0.7549591","-9.426178","-1.329956"
"17043163","-4.623062","-8.783478","-3.7722168"
"17043363","2.5347137","-10.861542","-6.269226"
"17043564","6.5027924","-0.98776245","-1.0228882"
"17043764","-1.1215363","-19.51419","-2.817688"
"17043965","0.30906677","-0.5307312","-2.9605103"
"17044166","-2.133194","-19.51419","-9.458923"
"17044367","-2.7473297","-2.1279602","-4.876709"
"17044568","-5.8775177","-19.51419","-15.438416"
"17044768","-2.011795","3.0065002","0.31488037"
"17044969","-1.5476227","-14.798676","19.262634"
"17045170","4.9841156","1.6377869","-6.152588"
"17045371","4.660385","-1.3424377","-5.2456665"
"17045571","-6.6987457","-14.1440735","-1.2347412"
"17045772","2.3514252","-1.6257019","-0.380188"
"17045973","-2.8615875","-19.51419","-0.26831055"
"17046174","-2.8996735","-2.7754211","-4.214966"
"17046375","-7.68898","-10.006989","-7.802185"
"17046576","0.2733612","-0.2593689","-5.428955"
"17046776","-5.970352","-16.68393","1.1313477"
"17046977","4.615158","0.8427429","-6.026428"
"17047178","7.1716766","-4.9844055","-0.20404053"
"17047379","-4.180313","-14.908173","-0.36590576"
"17047580","-1.1096344","0.2524109","0.6600342"
"17047781","-2.5997467","-19.51419","-5.07428"
"17047981","-2.1189117","-0.9853821","-4.2625732"
"17048182","-19.207596","-18.464447","-2.8890991"
"17048383","2.3395233","2.1733704","2.0739746"
"17048584","-3.6233063","-8.762054","-19.73677"
"17048785","-5.929886","-5.1629333","0.2053833"
"17048986","8.692734","-0.8925476","-0.01361084"
"17049186","2.299057","-19.51419","-5.9264526"
"17049387","1.1398163","-1.8327942","-0.19927979"
"17049588","-8.093643","-19.51419","7.901123"
"17049789","7.3168793","4.5799255","-2.3701782"
"17049990","-7.034378","-19.51419","18.508057"
"17050191","0.8327484","-8.547821","-1.3585205"
"17050391","-1.1001129","1.1117249","-0.32305908"
"17050592","-5.308609","-17.2695","-10.137329"
"17050793","-1.9808502","-2.2826843","-3.6722412"
"17050995","1.3683319","-19.51419","-2.946228"
"17051195","-2.4688263","0.85702515","-1.0276489"
"17051395","-1.3643341","-19.51419","-19.73677"
"17051596","0.88035583","1.1498108","-4.324463"
"17051797","8.447556","0.10720825","1.1599121"
"17051998","-4.0850983","-14.327362","-0.2730713"
"17052199","1.5087738","-0.5378723","3.673584"
"17052400","4.641342","-19.51419","0.010192871"
"17052600","0.41856384","-0.12606812","-4.236389"
"17052801","-16.72725","-14.9010315","13.6521"
"17053002","-1.9165802","1.7806091","-1.0800171"
"17053203","3.4773407","-17.174286","11.297913"
"17053404","-2.1950836","-9.428558","-0.2564087"
"17053604","0.39952087","-10.052216","-0.63726807"
"17053805","-0.91682434","-9.071503","-0.55633545"
"17054006","-2.9068146","-8.919159","-1.7703247"
"17054207","1.0088959","-9.664215","1.0575562"
"17054408","-1.7642365","-9.578522","-0.31591797"
"17054609","-1.6452179","-9.716583","-0.011230469"
"17054809","-1.0953522","-9.702301","0.26489258"
"17055010","-0.96443176","-9.683258","0.06732178"
"17055211","-0.51216125","-9.961761","-0.44207764"
"17055412","-0.7049713","-9.809418","-0.33258057"
"17055613","-1.588089","-9.768951","-0.4111328"
"17055814","-0.93110657","-9.590424","0.07684326"
"17056014","-1.0691681","-9.654694","0.16253662"
"17056215","-1.4690704","-9.649933","0.18157959"
"17056416","-1.5761871","-9.6475525","0.18634033"
"17056617","-1.357193","-9.63089","0.48150635"
"17056818","-1.6261749","-9.649933","0.27679443"
"17057019","-1.2405548","-9.635651","0.18157959"
"17057219","-1.126297","-9.618988","0.27679443"
"17057420","-1.3667145","-9.607086","0.20776367"
"17057621","-1.1215363","-9.776093","0.21728516"
"17057822","-1.319107","-9.652313","0.29345703"
"17058023","-1.2310333","-9.588043","0.33392334"
"17058224","-1.292923","-9.602325","0.46722412"
"17058424","-1.6118927","-9.56662","0.35772705"
"17058625","-1.1929474","-9.626129","0.0982666"
"17058826","-1.4143219","-9.569","0.36486816"
"17059027","-1.4547882","-9.583282","0.41485596"
"17059228","-1.4357452","-9.571381","0.48150635"
"17059428","-1.3976593","-9.549957","0.5600586"
"17059629","-1.4619293","-9.559479","0.40057373"
"17059830","-1.2976837","-9.569","0.62908936"
"17060031","-1.3857574","-9.599945","0.5862427"
"17060232","-1.3405304","-9.614227","0.35058594"
"17060432","-1.3643341","-9.607086","0.37438965"
"17060633","-1.4095612","-9.533295","0.42913818"
"17060834","-1.3476715","-9.63327","0.3696289"
"17061035","-1.4262238","-9.571381","0.4696045"
"17061236","-1.2595978","-9.588043","0.45532227"
"17061436","-1.2953033","-9.573761","0.4100952"
"17061637","-1.3714752","-9.597565","0.43151855"
"17061838","-1.4666901","-9.616608","0.48388672"
"17062039","-1.3405304","-9.649933","0.36486816"
"17062240","-1.3643341","-9.607086","0.4267578"
"17062440","-1.3500519","-9.616608","0.24822998"
"17062641","-1.4048004","-9.63089","0.33392334"
"17062842","-1.4048004","-9.604706","0.37200928"
"17063043","-1.3643341","-9.595184","0.47198486"
"17063244","-4.0684357","-9.181","1.447937"
"17063444","-4.0946198","-7.4290466","0.107788086"
"17063645","-4.756363","-12.173126","-1.875061"
"17063846","-1.4524078","-5.070099","0.8718872"
"17064047","2.8965302","-14.565399","-1.913147"
"17064248","6.8741302","-0.9425354","-7.7807617"
"17064448","-0.433609","-14.667755","-1.5513306"
"17064649","-2.337906","-7.1529236","7.8844604"
"17064850","-0.7644806","-17.112396","-15.200378"
"17065051","3.6677704","-15.508026","5.725464"
"17065251","-7.8770294","5.103607","2.3477173"
"17065452","-2.8354034","-19.51419","0.17443848"
"17065653","7.681076","1.0093689","-7.4070435"
"17065854","4.1866913","-15.753204","-0.94195557"
"17066054","9.980515","-8.664459","-9.287537"
"17066255","3.113144","-13.951263","-2.503479"
"17066456","1.9562836","-13.922699","-0.3944702"
"17066657","-2.7354279","-2.7897034","-1.579895"
"17066857","-2.723526","-15.541351","6.5062256"
"17067058","1.8063202","-9.428558","-5.985962"
"17067259","-5.4776154","-19.51419","0.22442627"
"17067460","-2.935379","-3.896576","-3.0795288"
"17067660","-1.6023712","-11.847015","-4.3339844"
"17067861","4.5104218","-6.576874","4.6328735"
"17068062","-2.068924","-6.719696","0.59576416"
"17068262","-11.1548","-19.51419","-1.829834"
"17068463","0.68278503","-13.213348","-8.390137"
"17068664","9.171188","-19.51419","8.093933"
"17068865","-6.770157","2.4494934","5.218445"
"17069065","-13.916031","-15.105743","11.8573"
"17069266","3.2726288","-12.703949","-9.408936"
"17069467","-4.41597","-19.51419","1.3217773"
"17069668","-1.9189606","1.6496887","4.751892"
"17069869","3.1440887","-19.51419","-1.848877"
"17070069","6.3623505","-2.0898743","-3.5913086"
"17070270","1.837265","-12.999115","1.2218018"
"17070471","-3.1638947","-18.773895","7.803528"
"17070671","4.2890472","-14.874847","-5.5717773"
"17070872","-2.10701","-17.595612","0.8623657"
"17071073","-6.6463776","4.28714","5.206543"
"17071274","2.5775604","-19.51419","0.8171387"
"17071474","7.166916","0.37142944","-4.2435303"
"17071675","-0.6240387","-17.936005","0.23156738"
"17071876","10.116196","-17.38852","-8.997131"
"17072076","3.415451","-15.757965","-7.9212036"
"17072277","4.127182","-19.497528","-4.0769043"
"17072478","-1.5333405","-3.775177","0.39819336"
"17072679","-8.814896","0.342865","12.442871"
"17072879","7.8643646","-5.217682","-7.2356567"
"17073080","-0.8073273","-15.836517","-3.7579346"
"17073281","-1.9975128","-2.4302673","-1.6084595"
"17073481","-1.2691193","-12.656342","1.1384888"
"17073682","1.0874481","-9.364288","0.9385376"
"17073883","-0.007522583","-10.2378845","-0.90625"
"17074083","2.2466888","-9.476166","0.37200928"
"17074284","-0.581192","-9.6285095","-0.15405273"
"17074485","-1.588089","-9.707062","0.7980957"
"17074686","-1.7832794","-9.519012","0.838562"
"17074886","-1.7261505","-9.63327","0.6409912"
"17075087","-1.7594757","-9.559479","0.7671509"
"17075288","-1.5785675","-9.573761","0.6600342"
"17075488","-1.4809723","-9.571381","0.6171875"
"17075689","-1.4476471","-9.535675","0.7719116"
"17075890","-1.3595734","-9.559479","0.524353"
"17076091","-1.4833527","-9.623749","0.5933838"
"17076291","-1.4262238","-9.611847","0.6100464"
"17076492","-1.4928741","-9.56662","0.5529175"
"17076693","-1.3667145","-9.588043","0.53863525"
"17076893","-1.5214386","-9.576141","0.6005249"
"17077094","-1.5214386","-9.573761","0.5505371"
"17077295","-1.4262238","-9.557098","0.48388672"
"17077495","-1.3833771","-9.590424","0.6005249"
"17077696","-1.3928986","-9.595184","0.4862671"
"17077897","-1.485733","-9.578522","0.54815674"
"17078097","-1.5642853","-9.578522","0.53863525"
"17078298","-1.5952301","-9.535675","0.5195923"
"17078499","-1.1501007","-9.685638","0.32678223"
"17078700","-1.4286041","-9.571381","0.7504883"
"17078900","-1.5476227","-9.523773","0.6671753"
"17079101","-1.5261993","-9.554718","0.6005249"
"17079302","-1.5214386","-9.623749","0.44104004"
"17079502","-1.4500275","-9.538055","0.59814453"
"17079703","-1.5714264","-9.604706","0.58148193"
"17079904","-1.3357697","-9.626129","0.6933594"
"17080104","-1.3690948","-9.559479","0.5100708"
"17080305","-1.4643097","-9.561859","0.5695801"
"17080506","-1.3595734","-9.599945","0.42199707"
"17080706","-1.4167023","-9.659454","0.44818115"
"17080907","-1.5119171","-9.545197","0.3791504"
"17081108","-1.4238434","-9.549957","0.5195923"
"17081308","-1.5619049","-9.573761","0.4267578"
"17081509","-1.5999908","-9.611847","0.46246338"
"17081710","-1.588089","-9.599945","0.44580078"
"17081910","-1.4928741","-9.614227","0.52197266"
"17082111","-1.5119171","-9.56662","0.47912598"
"17082312","-1.3952789","-9.595184","0.460083"
"17082512","-1.4976349","-9.588043","0.67907715"
"17082713","-1.4357452","-9.561859","0.15063477"
"17082914","-2.3355255","-9.649933","1.4907837"
"17083114","-4.2802887","-8.695404","0.25299072"
"17083315","-2.0284576","-8.80014","1.4741211"
"17083515","0.38285828","-9.666595","0.1720581"
"17083716","3.313095","-9.680878","0.71240234"
"17083917","-0.8216095","-11.280487","-1.2585449"
"17084117","0.08055115","-11.223358","2.6833496"
"17084318","-0.25984192","-7.598053","0.55529785"
"17084519","5.8767548","-12.404022","-7.540344"
"17084719","-2.909195","-9.602325","5.2612915"
"17084920","-0.9263458","-8.645416","-0.2897339"
"17085120","1.5492401","-10.7211","-0.3468628"
"17085321","-1.6214142","-12.558746","3.5426636"
"17085522","-1.9451447","-6.6316223","0.77667236"
"17085722","5.5863495","-14.470184","-6.7786255"
"17085923","0.023422241","-11.6875305","2.0335083"
"17086124","0.013900757","-9.395233","-1.5703735"
"17086324","1.0588837","-10.78775","-1.4204102"
"17086525","-0.7311554","-11.708954","1.4622192"
"17086725","-3.037735","-5.8627625","-0.58013916"
"17086926","-2.5164337","-6.1079407","-3.4413452"
"17087127","4.055771","-9.097687","-1.8393555"
"17087327","-0.21461487","-9.95462","0.9552002"
"17087528","0.3638153","-11.485199","-1.5418091"
"17087728","-2.402176","-9.657074","2.8666382"
"17087929","3.132187","-8.195526","-6.0073853"
"17088130","-1.9046783","-6.976776","4.494812"
"17088330","-0.5002594","-9.704681","0.18634033"
"17088531","-0.79304504","-9.63327","-1.5846558"
"17088731","-0.7406769","-12.113617","4.942322"
"17088932","-0.85969543","-8.41214","1.6312256"
"17089133","1.394516","-9.181","-1.6679688"
"17089333","-1.1667633","-10.185516","1.6931152"
"17089534","-0.34791565","-9.076263","2.2786865"
"17089734","-0.06703186","-9.892731","0.40057373"
"17089935","0.3066864","-10.0784","-2.1749878"
"17090135","0.35429382","-11.823212","-4.300659"
"17090336","-0.82637024","-7.2862244","-3.2675781"
"17090537","-0.5764313","-12.8420105","1.826416"
"17090737","-2.4593048","-9.607086","2.1691895"
"17090938","-0.7311554","-10.478302","-0.6658325"
"17091138","-5.1443634","-15.060516","1.3122559"
"17091339","-2.3593292","-5.3557434","0.13397217"
"17091540","5.441147","-13.794159","-6.4144287"
"17091740","2.825119","-14.029816","0.9290161"
"17091941","-0.19795227","-9.050079","1.9002075"
"17092141","3.5844574","-12.396881","-1.3442383"
"17092342","-3.2353058","-9.397614","0.9456787"
"17092542","0.29716492","-7.9670105","-2.3582764"
"17092743","-5.7227936","-19.51419","-2.1273804"
"17092944","-0.58595276","-7.6218567","3.2332153"
"17093144","0.70658875","-10.46402","-0.4206543"
"17093345","-0.33125305","-11.275726","5.3398438"
"17093545","-1.2476959","-9.285736","0.6171875"
"17093746","-2.3474274","-9.364288","0.65289307"
"17093946","-2.1950836","-10.509247","-0.26831055"
"17094147","-1.3881378","-9.75943","-0.025512695"
"17094348","-1.1953278","-9.347626","0.057800293"
"17094548","-0.37171936","-9.642792","0.35534668"
"17094749","-1.2857819","-9.607086","0.6433716"
"17094949","-2.2688751","-9.366669","0.71954346"
"17095150","-0.04322815","-9.704681","-0.05883789"
"17095350","-1.4143219","-9.430939","0.6481323"
"17095551","-1.440506","-9.545197","0.4767456"
"17095751","-1.4666901","-9.583282","0.54577637"
"17095952","-1.7737579","-9.557098","0.52911377"
"17096153","-1.6475983","-9.595184","0.3196411"
"17096353","-1.4381256","-9.604706","0.26965332"
"17096554","-1.4666901","-9.552338","0.3125"
"17096754","-1.5142975","-9.578522","0.34820557"
"17096955","-1.4547882","-9.63327","0.53149414"
"17097155","-1.3881378","-9.649933","0.48388672"
"17097356","-1.5571442","-9.573761","0.56243896"
"17097556","-1.5166779","-9.580902","0.36486816"
"17097757","-1.550003","-9.638031","0.42437744"
"17097957","-1.4262238","-9.626129","0.2958374"
"17098158","-1.550003","-9.533295","0.34820557"
"17098359","-1.4286041","-9.559479","0.2958374"
"17098559","-1.3643341","-9.592804","0.37438965"
"17098760","-1.4571686","-9.618988","0.24346924"
"17098960","-1.4714508","-9.590424","0.32678223"
"17099161","-1.5285797","-9.5642395","0.23632813"
"17099361","-1.5071564","-9.552338","0.24108887"
"17099562","-1.4524078","-9.580902","0.17681885"
"17099762","-1.5357208","-9.538055","0.2220459"
"17099963","-1.5000153","-9.530914","0.56481934"
"17100163","-1.0048981","-9.535675","0.9242554"
"17100364","-0.4931183","-9.807037","0.88616943"
"17100565","-0.44075012","-9.768951","0.31726074"
"17100765","-0.6883087","-9.530914","0.70526123"
"17100966","-0.8549347","-9.50235","0.90283203"
"17101166","-0.61927795","-9.664215","0.6981201"
"17101367","-1.1429596","-9.599945","0.7909546"
"17101567","-0.85969543","-9.578522","0.9052124"
"17101768","-1.2262726","-9.511871","0.9313965"
"17101968","-1.1381989","-9.578522","0.8242798"
"17102169","-1.0167999","-9.540436","0.68859863"
"17102369","-0.8977814","-9.583282","0.5005493"
"17102570","-1.1286774","-9.580902","0.71240234"
"17102770","-0.27412415","-8.940582","-0.40875244"
"17102971","-1.0287018","-9.7118225","-1.0466919"
"17103171","2.2490692","-19.51419","1.6407471"
"17103372","1.5897064","3.4254456","1.65979"
"17103572","-14.413528","-19.483246","-12.189209"
"17103773","2.196701","-0.82351685","-0.68011475"
"17103973","0.9398651","-0.2998352","-3.843628"
"17104174","-1.2619781","-9.007233","-2.105957"
"17104374","0.55900574","-0.792572","2.2191772"
"17104575","1.6373138","-19.51419","-6.5429688"
"17104775","-2.7068634","-1.3138733","-8.016418"
"17104976","-8.729202","-15.386627","11.688293"
"17105176","5.7458344","2.9255676","-2.1107178"
"17105377","-5.353836","-19.51419","-3.5413208"
"17105577","-3.230545","-4.17984","-1.239502"
"17105778","-0.038467407","-0.6711731","-12.83905"
"17105978","-9.302872","-19.414215","-9.323242"
"17106179","-3.147232","-1.171051","-1.5322876"
"17106379","-3.2852936","-19.51419","-17.171326"
"17106580","-0.18605042","0.5713806","-3.6293945"
"17106780","5.1174164","-19.51419","15.039856"
"17106981","1.8467865","0.08816528","-3.6222534"
"17107181","7.540634","-13.4133","-11.213257"
"17107382","-11.928421","-17.826508","-0.83483887"
"17107582","-8.086502","2.4613953","1.7502441"
"17107783","-4.880142","-19.51419","-13.050903"
"17107983","-0.35743713","2.8803406","-4.6172485"
"17108184","-12.344986","-13.182404","17.279785"
"17108384","3.5582733","0.6975403","0.59576416"
"17108585","-1.3690948","-16.031708","-19.73677"
"17108785","-5.37764","-9.645172","-2.1773682"
"17108986","-0.93110657","-0.2593689","-1.7179565"
"17109186","-4.9920197","-19.51419","-6.8571777"
"17109387","0.84465027","-2.332672","2.6785889"
"17109587","1.4278412","-19.51419","10.133911"
"17109787","2.522812","4.301422","0.49578857"
"17109988","-12.6949005","-19.51419","17.156006"
"17110189","4.7532196","-8.86441","-0.5182495"
"17110389","-0.32411194","0.8522644","-9.744568"
"17110589","-1.2643585","-16.869598","-4.3911133"
"17110790","-3.6352081","-1.42099","-5.3742065"
"17110990","-6.943924","-19.51419","-2.760559"
"17111191","2.6180267","1.2593079","-3.158081"
"17111391","2.2633514","-5.3747864","13.980591"
"17111592","7.7477264","2.613739","-3.6865234"
"17111792","4.722275","-8.055084","-7.007141"
"17111993","-3.2448273","-9.8237","1.614563"
"17112193","-9.952713","-2.2922058","-6.3668213"
"17112394","-6.98201","-5.565216","-0.092163086"
"17112594","-1.5476227","-8.535919","1.8526001"
"17112795","-0.95014954","-9.997467","-1.8084106"
"17112995","-0.6549835","-8.616852","-0.62060547"
"17113196","-0.895401","-14.424957","-2.4796753"
"17113396","-0.34553528","-10.252167","0.42437744"
"17113597","0.14958191","-9.82132","0.036376953"
"17113797","-0.96681213","-9.7308655","-0.046936035"
"17113998","-1.3738556","-9.5642395","0.10064697"
"17114198","-0.6549835","-9.635651","0.36486816"
"17114399","-1.6928253","-9.6475525","0.2886963"
"17114599","-1.4714508","-9.569","0.6505127"
"17114800","-1.2000885","-9.735626","0.40057373"
"17115000","-1.5714264","-9.626129","0.22680664"
"17115201","-1.3548126","-9.673737","0.15777588"
"17115401","-1.8285065","-9.473785","0.4767456"
"17115602","-1.4547882","-9.618988","0.30773926"
"17115802","-1.7023468","-9.585663","0.7076416"
"17116002","-1.6475983","-9.6285095","0.71954346"
"17116203","-1.3667145","-9.4999695","0.7219238"
"17116403","-1.6642609","-9.554718","0.76239014"
"17116604","-1.5000153","-9.6285095","0.6671753"
"17116804","-1.6214142","-9.495209","0.47912598"
"17117005","-1.6356964","-9.547577","0.6029053"
"17117205","-1.5261993","-9.495209","0.52911377"
"17117406","-1.4119415","-9.585663","0.5862427"
"17117606","-1.5095367","-9.580902","0.7005005"
"17117807","-1.607132","-9.588043","0.710022"
"17118007","-1.485733","-9.6475525","0.67193604"
"17118207","-1.5523834","-9.599945","0.6814575"
"17118408","-1.4928741","-9.542816","0.7219238"
"17118608","-1.4976349","-9.63089","0.6933594"
"17118809","-1.6190338","-9.56662","0.5695801"
"17119009","-1.4690704","-9.56662","0.6433716"
"17119210","-1.4452667","-9.507111","0.4767456"
"17119410","-1.421463","-9.5642395","0.7005005"
"17119611","-1.3429108","-9.583282","0.4434204"
"17119811","-1.5261993","-9.580902","0.52911377"
"17120012","-1.2476959","-9.573761","0.6005249"
"17120212","-1.4357452","-9.623749","0.47436523"
"17120413","-1.5476227","-9.599945","0.43865967"
"17120613","-1.4952545","-9.638031","0.47436523"
"17120814","-1.504776","-9.578522","0.57910156"
"17121014","-1.5642853","-9.573761","0.524353"
"17121214","-1.5571442","-9.554718","0.6814575"
"17121415","-1.4500275","-9.552338","0.52911377"
"17121615","-1.607132","-9.538055","0.59576416"
"17121816","-1.5285797","-9.592804","0.49816895"
"17122016","-1.6404572","-9.545197","0.64575195"
"17122217","-1.5333405","-9.545197","0.49816895"
"17122417","-1.4952545","-9.538055","0.56243896"
"17122618","-1.5642853","-9.6285095","0.40771484"
"17122818","-2.2403107","-9.323822","0.5267334"
"17123019","-2.7663727","-9.264313","0.09112549"
"17123219","-2.0427399","-9.433319","-0.7991333"
"17123419","2.0372162","-10.049835","-1.9512329"
"17123620","-2.1855621","-9.935577","1.0266113"
"17123820","4.070053","-5.424774","-8.687683"
"17124021","-1.1977081","-19.51419","0.3696289"
"17124221","-0.10987854","-7.695648","-19.73677"
"17124422","0.84465027","-16.707733","-0.049316406"
"17124622","2.363327","-5.6842346","0.5695801"
"17124823","-1.107254","-7.3766785","2.6119385"
"17125023","-7.0558014","-9.131012","3.9354248"
"17125224","1.875351","-17.64798","-11.441772"
"17125424","-2.8568268","-12.158844","1.5740967"
"17125624","-3.8113556","4.2347717","-0.31829834"
"17125825","1.9610443","-19.51419","-3.7769775"
"17126025","5.129318","0.2190857","-5.878845"
"17126226","2.8394012","-15.548492","-3.612732"
"17126426","9.014084","-19.51419","-18.9328"
"17126627","4.267624","-17.381378","-3.5794067"
"17126827","1.3540497","-18.619171","-1.5132446"
"17127028","-0.7787628","-1.4281311","5.5445557"
"17127228","0.016281128","-17.983612","-0.70391846"
"17127429","2.1824188","-4.660675","-6.588196"
"17127629","-1.0786896","-18.183563","-0.8991089"
"17127829","3.2321625","-2.972992","-2.3677979"
"17128030","0.64945984","-19.51419","2.9594727"
"17128230","-0.81684875","-3.8799133","-7.0856934"
"17128431","0.28526306","-18.264496","-2.6843872"
"17128631","-2.5283356","-2.0517883","-0.56347656"
"17128832","-3.416214","-12.618256","-3.3318481"
"17129032","5.6387177","-3.082489","-7.7093506"
"17129232","0.3400116","-11.742279","-2.0964355"
"17129433","0.720871","-16.412567","-17.299866"
"17129633","5.905319","-10.9758","-2.6082153"
"17129834","1.0326996","-14.534454","-2.9866943"
"17130034","-0.30506897","-6.6958923","-1.913147"
"17130234","-7.0058136","-10.345001","4.187744"
"17130435","3.563034","-12.918182","-5.795532"
"17130635","-4.7920685","-14.555878","-1.1752319"
"17130836","-3.7518463","0.31906128","-1.0871582"
"17131036","4.3628387","-19.414215","-2.2321167"
"17131237","4.9055634","-0.91397095","-5.7026978"
"17131437","0.12339783","-14.244049","-1.3799438"
"17131638","3.8534393","-5.865143","-4.9957275"
"17131838","1.7063446","-9.616608","-1.2466431"
"17132038","-0.9263458","-5.7794495","6.394348"
"17132239","-1.9237213","-9.0381775","-1.1014404"
"17132439","-4.513565","-10.349762","2.5952759"
"17132640","0.23051453","-13.54422","0.23632813"
"17132840","-1.7951813","-12.891998","-0.8015137"
"17133041","-1.440506","-5.7794495","1.8549805"
"17133241","-5.8180084","-14.960541","-3.3080444"
"17133441","-1.08107","-9.797516","-1.1776123"
"17133642","-1.6142731","-10.14505","-1.2823486"
"17133842","-1.2667389","-9.873688","1.6407471"
"17134042","-1.7737579","-9.604706","-0.41589355"
"17134243","-2.768753","-9.495209","0.13635254"
"17134443","-1.2429352","-9.626129","0.7814331"
"17134644","-1.4690704","-9.616608","0.49816895"
"17134844","-1.5119171","-9.63327","0.5600586"
"17135044","-1.5452423","-9.590424","0.5362549"
"17135245","-1.5214386","-9.611847","0.61242676"
"17135445","-1.5404816","-9.616608","0.5410156"
"17135646","-1.504776","-9.547577","0.63861084"
"17135846","-1.4928741","-9.576141","0.41723633"
"17136046","-1.3881378","-9.516632","0.63861084"
"17136247","-1.4881134","-9.592804","0.33392334"
"17136447","-1.5214386","-9.578522","0.47198486"
"17136648","-1.4238434","-9.618988","0.3458252"
"17136848","-1.3976593","-9.599945","0.37200928"
"17137048","-1.33815","-9.590424","0.2958374"
"17137249","-1.4976349","-9.640411","0.28631592"
"17137449","-1.4738312","-9.595184","0.33392334"
"17137650","-1.4500275","-9.597565","0.36486816"
"17137850","-1.4119415","-9.56662","0.33868408"
"17138050","-1.5476227","-9.592804","0.38153076"
"17138251","-1.4547882","-9.661835","0.33868408"
"17138451","-1.4619293","-9.614227","0.4029541"
"17138652","-1.4714508","-9.6285095","0.3196411"
"17138852","-1.5333405","-9.595184","0.26013184"
"17139052","-1.5452423","-9.614227","0.29107666"
"17139253","-1.4714508","-9.592804","0.43389893"
"17139453","-1.5619049","-9.599945","0.40533447"
"17139654","-1.4785919","-9.588043","0.40771484"
"17139854","-1.421463","-9.588043","0.4100952"
"17140054","-1.5214386","-9.576141","0.48150635"
"17140255","-1.588089","-9.597565","0.44580078"
"17140455","-1.5166779","-9.588043","0.44104004"
"17140655","-1.440506","-9.557098","0.51483154"
"17140856","-1.5666656","-9.609467","0.4124756"
"17141056","-1.504776","-9.642792","0.47198486"
"17141256","-1.4666901","-9.595184","0.42199707"
"17141457","-1.4762115","-9.540436","0.49816895"
"17141657","-1.4904938","-9.588043","0.4696045"
"17141858","-1.4690704","-9.63089","0.395813"
"17142058","-1.3857574","-9.649933","0.35058594"
"17142258","-1.4238434","-9.590424","0.4267578"
"17142459","-1.4286041","-9.561859","0.25299072"
"17142659","-2.3093414","-9.350006","0.57196045"
"17142859","-1.9689484","-9.457123","0.5576782"
"17143059","-1.3595734","-10.199799","2.2572632"
"17143260","-1.7428131","-10.261688","-1.939331"
"17143460","0.9470062","-10.702057","3.0665894"
"17143660","0.48521423","-10.982941","2.980896"
"17143861","1.9062958","-9.845123","0.20776367"
"17144061","-2.3926544","-10.816315","0.13635254"
"17144261","-0.5312042","-12.113617","-2.5391846"
"17144462","1.2826385","-9.426178","1.716919"
"17144662","1.8848724","-8.54306","-4.933838"
"17144862","-7.001053","-9.37381","10.25769"
"17145062","-1.8070831","-8.950104","-1.8560181"
"17145263","3.8296356","-13.084808","-4.6362915"
"17145463","-1.6809235","-9.937958","1.6693115"
"17145663","-1.5761871","-6.179352","-1.091919"
"17145863","-8.060318","-4.4012146","3.5593262"
"17146064","-0.3026886","-9.676117","1.8692627"
"17146264","2.5513763","-10.192657","-0.8562622"
"17146464","-0.19795227","-12.26358","-2.2011719"
"17146664","-3.1043854","-4.7677917","0.09112549"
"17146865","-0.42408752","-12.2612","1.3217773"
"17147065","-2.254593","-8.233612","1.6954956"
"17147265","1.0541229","-10.6996765","0.20062256"
"17147465","-2.9877472","-12.446869","2.666687"
"17147665","-3.666153","-5.9413147","0.6171875"
"17147866","9.799606","-19.51419","-12.8533325"
"17148066","1.2945404","-12.882477","-0.9300537"
"17148266","-0.895401","-9.764191","-2.95813"
"17148466","0.21385193","-14.655853","2.159668"
"17148667","1.1802826","-5.9008484","4.732849"
"17148867","-4.2017365","-7.7742004","12.023926"
"17149067","-1.6595001","-10.435455","0.13635254"
"17149267","-2.087967","-8.912018","1.5383911"
"17149467","2.6085052","-8.619232","-3.0890503"
"17149668","-0.39552307","-16.260223","-5.8693237"
"17149868","-3.1234283","-1.8684998","5.706421"
"17150068","0.6708832","-11.0781555","-3.1818848"
"17150268","4.6770477","-8.643036","-5.1433105"
"17150468","-5.3562164","-12.673004","-1.0514526"
"17150668","4.505661","-6.667328","-4.0388184"
"17150869","2.5013885","-9.207184","3.4712524"
"17151069","0.868454","-9.414276","-1.1157227"
"17151269","1.8777313","-10.368805","-3.0319214"
"17151469","-1.8784943","-12.508759","-0.85388184"
"17151669","-0.51930237","-4.801117","0.34106445"
"17151869","-11.98555","-5.9913025","5.527893"
"17152069","-0.8715973","-7.360016","-1.1871338"
"17152270","-0.6073761","-9.699921","-0.5349121"
"17152470","-3.8184967","-10.356903","0.5005493"
"17152670","-2.716385","-6.162689","0.95043945"
"17152870","3.1036224","-9.230988","-6.640564"
"17153070","-2.8306427","-8.024139","3.8925781"
"17153270","0.785141","-9.307159","1.486023"
"17153470","-4.7801666","-10.387848","4.237732"
"17153670","-2.9449005","-10.240265","1.5931396"
"17153870","-1.8903961","-8.554962","0.010192871"
"17154070","-1.8142242","-9.576141","0.6314697"
"17154271","-2.3498077","-9.778473","-0.08502197"
"17154471","-1.6856842","-9.554718","0.66241455"
"17154671","-1.523819","-9.442841","0.95043945"
"17154871","-1.2119904","-9.271454","0.87664795"
"17155071","-1.421463","-9.523773","0.86712646"
"17155271","-1.4143219","-9.626129","0.5576782"
"17155471","-1.3333893","-9.6475525","0.49578857"
"17155671","-1.3714752","-9.533295","0.6814575"
"17155871","-1.2953033","-9.635651","0.37677002"
"17156071","-1.5166779","-9.611847","0.32440186"
"17156271","-1.4904938","-9.557098","0.36010742"
"17156471","-1.5452423","-9.602325","0.36010742"
"17156671","-1.3595734","-9.618988","0.36724854"
"17156871","-1.5142975","-9.635651","0.32440186"
"17157071","-1.421463","-9.614227","0.5100708"
"17157271","-1.3976593","-9.614227","0.4362793"
"17157471","-1.3333893","-9.597565","0.3696289"
"17157671","-1.5000153","-9.642792","0.52197266"
"17157871","-1.5000153","-9.583282","0.4529419"
"17158071","-1.5571442","-9.614227","0.40533447"
"17158271","-1.523819","-9.621368","0.42199707"
"17158471","-1.5595245","-9.592804","0.53149414"
"17158671","-1.7737579","-9.645172","0.4124756"
"17158872","-1.4762115","-9.604706","0.4934082"
"17159072","-1.3952789","-9.590424","0.40057373"
"17159271","-1.4262238","-9.714203","0.16967773"
"17159472","-1.3857574","-9.626129","0.21014404"
"17159671","-1.3643341","-9.592804","0.3125"
"17159871","-1.4286041","-9.645172","0.19348145"
"17160071","-1.33815","-9.685638","0.22680664"
"17160271","-1.2619781","-9.623749","0.4362793"
"17160471","-1.3095856","-9.649933","0.35058594"
"17160671","-1.2143707","-9.666595","0.21490479"
"17160871","-1.2238922","-9.604706","0.4434204"
"17161071","-1.3643341","-9.664215","0.26489258"
"17161271","-1.3833771","-9.69754","0.31726074"
"17161471","-1.3452911","-9.557098","0.39105225"
"17161671","-1.20961","-9.652313","0.4124756"
"17161871","-1.3500519","-9.607086","0.3458252"
"17162071","-1.3928986","-9.616608","0.30059814"
"17162271","-1.2476959","-9.618988","0.37200928"
"17162471","-1.3738556","-9.599945","0.2387085"
"17162671","-1.2857819","-9.614227","0.28393555"
"17162871","-1.3809967","-9.63327","0.2387085"
"17163071","-1.3738556","-9.664215","0.36724854"
"17163271","0.535202","-8.352631","-3.0842896"
"17163471","1.4516449","-18.15738","2.1691895"
"17163671","-1.8070831","1.1855164","-1.3942261"
"17163871","-5.7942047","-19.51419","-10.632446"
"17164071","2.2205048","4.0205383","-5.576538"
"17164271","-1.9189606","-16.345917","7.8582764"
"17164471","0.97080994","1.1474304","-0.31591797"
"17164671","9.892441","-1.3257751","-1.2799683"
"17164871","-7.9746246","-19.51419","-4.0411987"
"17165071","-1.33815","-0.9568176","2.1763306"
"17165271","5.167404","-19.51419","11.526428"
"17165471","0.3471527","2.9136658","-3.0914307"
"17165671","-13.487564","-19.51419","6.4419556"
"17165871","1.0184174","-2.344574","1.947815"
"17166071","-2.0332184","-0.3736267","-7.937866"
"17166271","-4.763504","-6.238861","-2.9367065"
"17166471","6.9645844","-1.0686951","-0.41589355"
"17166671","-5.296707","-19.51419","-3.5222778"
"17166871","-1.1572418","-0.7544861","2.9642334"
"17167071","4.479477","-19.51419","-7.0"
"17167271","0.68040466","3.896759","2.0977783"
"17167471","-19.738419","-19.51419","-11.244202"
"17167671","-0.90730286","2.125763","0.5600586"
"17167871","-2.787796","-4.6582947","-19.73677"
"17168071","-7.6985016","-4.634491","-0.5349121"
"17168271","0.33525085","0.03817749","2.2072754"
"17168471","-0.21699524","-19.452301","-3.3104248"
"17168670","2.344284","-1.7113953","-0.8134155"
"17168870","16.162338","-19.51419","-7.6760254"
"17169070","6.3694916","3.3730774","-3.9959717"
"17169270","-2.499771","-16.11264","7.8916016"
"17169470","-2.4688263","-4.9963074","-0.27545166"
"17169670","-1.20961","-0.7854309","-0.10406494"
"17169870","-5.967972","-6.738739","-1.7774658"
"17170070","3.0131683","-2.877777","-5.1885376"
"17170270","-1.2167511","-19.51419","-0.9729004"
"17170470","2.6489716","-2.499298","2.0692139"
"17170670","5.633957","-19.51419","-0.9729004"
"17170870","1.3326263","1.1783752","0.045898438"
"17171070","-5.9156036","-19.51419","12.69281"
"17171270","1.6849213","3.4230652","0.80999756"
"17171470","5.39592","-14.546356","-12.498657"
"17171670","2.9869843","-2.787323","0.6766968"
"17171870","4.0200653","-5.6128235","-7.557007"
"17172070","-6.1274567","-12.83725","0.038757324"
"17172270","-0.53834534","0.13339233","7.0632324"
"17172470","-0.4502716","-19.51419","-7.097595"
"17172669","-5.12294","-1.5995178","0.39819336"
"17172869","-3.6304474","-19.51419","-18.178223"
"17173069","0.47331238","1.5378113","1.6240845"
"17173269","8.678452","-17.543243","2.2858276"
"17173469","-1.0596466","-4.5416565","-0.52301025"
"17173669","-3.4900055","-9.352386","-0.6586914"
"17173869","-2.3474274","-9.604706","1.1694336"
"17174069","-0.9096832","-9.8237","0.44580078"
"17174269","-0.978714","-9.892731","0.39819336"
"17174469","-1.0358429","-9.75705","1.0123291"
"17174669","-1.485733","-9.509491","0.9456787"
"17174869","-1.1120148","-9.604706","0.7338257"
"17175069","-0.7787628","-9.721344","0.17681885"
"17175269","-1.6285553","-9.592804","0.7814331"
"17175469","-1.171524","-9.407135","0.59814453"
"17175668","-1.3809967","-9.618988","0.5362549"
"17175868","-1.2595978","-9.618988","0.6766968"
"17176068","-1.3072052","-9.580902","0.60528564"
"17176268","-1.1381989","-9.654694","0.47436523"
"17176468","-1.2191315","-9.685638","0.5743408"
"17176668","-1.4547882","-9.552338","0.5695801"
"17176868","-1.2810211","-9.6475525","0.62194824"
"17177068","-1.2643585","-9.668976","0.67907715"
"17177268","-1.3143463","-9.642792","0.7504883"
"17177468","-1.228653","-9.611847","0.76000977"
"17177668","-1.2072296","-9.63327","0.755249"
"17177868","-1.2405548","-9.583282","0.7314453"
"17178068","-1.3095856","-9.640411","0.7314453"
"17178268","-1.3167267","-9.688019","0.5910034"
"17178468","-1.3095856","-9.578522","0.67193604"
"17178668","-1.2405548","-9.642792","0.6600342"
"17178867","-1.1691437","-9.688019","0.70526123"
"17179067","-1.2976837","-9.542816","0.6243286"
"17179267","-1.2619781","-9.616608","0.6148071"
"17179467","-1.0096588","-9.728485","0.4767456"
"17179667","-1.1977081","-9.649933","0.76953125"
"17179867","-1.27388","-9.666595","0.68859863"
"17180067","-1.3238678","-9.571381","0.8885498"
"17180267","-0.9953766","-9.614227","0.60528564"
"17180467","-1.190567","-9.545197","0.607666"
"17180667","-1.3690948","-9.547577","0.9647217"
"17180867","-0.9358673","-9.488068","1.0004272"
"17181066","-0.5478668","-9.690399","0.7338257"
"17181266","-1.0786896","-9.616608","1.0456543"
"17181466","-1.5476227","-9.583282","0.58862305"
"17181666","-1.4000397","-9.778473","1.1789551"
"17181866","-1.9737091","-9.37381","1.0623169"
"17182066","-1.7713776","-9.4999695","0.90997314"
"17182266","-1.5381012","-9.580902","0.8123779"
"17182466","-1.4738312","-9.671356","0.6171875"
"17182666","-1.4762115","-9.454742","0.524353"
"17182866","-2.2831573","-9.676117","-0.29449463"
"17183065","-3.0520172","-8.626373","-0.80389404"
"17183265","-4.987259","-8.752533","-3.112854"
"17183465","-5.18721","-10.730621","-1.5251465"
"17183665","3.0464935","-11.81369","1.9716187"
"17183865","4.2390594","-6.1960144","-4.8100586"
"17184065","0.07817078","-13.315704","-0.9967041"
"17184265","-1.7285309","-6.7934875","19.262634"
"17184465","1.3826141","-17.036224","-2.6986694"
"17184665","-0.28126526","-16.026947","1.1741943"
"17184865","-4.2279205","0.48330688","3.4379272"
"17185064","-7.0962677","3.787262","10.993225"
"17185264","1.080307","-8.083649","-8.549622"
"17185464","-5.7751617","-17.874115","0.38391113"
"17185664","0.17100525","-9.704681","-5.4884644"
"17185864","2.8774872","-11.882721","2.4000854"
"17186064","0.40190125","-0.9925232","0.5838623"
"17186264","0.04484558","-10.216461","2.81427"
"17186463","-3.961319","-13.406158","-2.2368774"
"17186663","-0.89302063","-11.23764","-1.4846802"
"17186863","8.609421","-19.51419","-2.0940552"
"17187063","-3.0782013","-5.0105896","2.4453125"
"17187263","-0.32411194","3.3349915","0.6671753"
"17187463","-2.1046295","-12.054108","-5.928833"
"17187663","2.1609955","-16.798187","3.8568726"
"17187863","-2.9044342","-7.1457825","1.5979004"
"17188062","-0.33125305","-7.57901","-2.8153076"
"17188262","3.3488007","-14.855804","-3.2961426"
"17188462","0.44474792","-18.535858","-0.4777832"
"17188662","-7.2628937","2.7827454","3.2213135"
"17188862","-9.733719","-5.191498","10.819458"
"17189062","-2.057022","-9.031036","-11.55603"
"17189262","-9.567093","-19.047638","0.036376953"
"17189462","1.7848969","-12.972931","-10.539612"
"17189662","6.9669647","-11.3280945","1.9882813"
"17189862","2.9441376","-8.866791","0.41485596"
"17190061","-1.0667877","-2.3136292","2.7547607"
"17190261","-9.602798","0.111968994","-0.7348633"
"17190461","2.537094","-8.071747","-8.566284"
"17190661","-6.6773224","-19.51419","-4.429199"
"17190861","4.512802","-8.747772","-2.484436"
"17191061","4.5294647","-14.422577","1.0218506"
"17191261","3.1940765","-7.45047","0.5338745"
"17191461","-0.93110657","-8.688263","-0.8395996"
"17191661","-8.760147","-5.2605286","7.9368286"
"17191861","-0.49073792","-6.603058","-3.7984009"
"17192060","1.901535","-13.370453","0.022094727"
"17192260","0.5233002","-10.225983","-9.237549"
"17192460","-0.831131","-13.365692","1.6050415"
"17192660","0.7422943","-5.629486","-3.2842407"
"17192860","-2.8996735","-10.98056","-1.7036743"
"17193060","-1.3429108","-7.83609","0.3529663"
"17193260","0.14958191","-9.081024","-0.4777832"
"17193460","-1.7951813","-9.421417","0.7314453"
"17193659","-1.7785187","-9.830841","0.24584961"
"17193859","-1.8784943","-9.585663","0.41485596"
"17194059","-1.7237701","-9.557098","0.43865967"
"17194259","-1.8451691","-9.557098","0.41723633"
"17194459","-1.864212","-9.552338","0.46722412"
"17194659","-1.7928009","-9.56662","0.460083"
"17194859","-1.838028","-9.580902","0.4362793"
"17195059","-1.6642609","-9.585663","0.49816895"
"17195258","-1.8665924","-9.592804","0.32202148"
"17195459","-1.716629","-9.642792","0.48864746"
"17195658","-1.8475494","-9.645172","0.41485596"
"17195858","-1.7928009","-9.561859","0.30297852"
"17196058","-1.8285065","-9.609467","0.2387085"
"17196258","-1.8689728","-9.533295","0.28393555"
"17196458","-1.8308868","-9.590424","0.21966553"
"17196658","-1.8261261","-9.618988","0.28155518"
"17196858","-1.754715","-9.554718","0.22442627"
"17197057","-1.8023224","-9.638031","0.34820557"
"17197257","-1.9380035","-9.607086","0.23632813"
"17197457","-1.8594513","-9.607086","0.29345703"
"17197657","-1.7737579","-9.521393","0.43389893"
"17197857","-1.7047272","-9.611847","0.46246338"
"17198057","-1.7380524","-9.592804","0.21728516"
"17198257","-1.6737823","-9.635651","0.20776367"
"17198457","-1.7761383","-9.583282","0.1149292"
"17198656","-1.7785187","-9.578522","0.24584961"
"17198856","-1.4952545","-9.549957","0.12921143"
"17199056","-1.7713776","-9.614227","0.083984375"
"17199256","-1.6595001","-9.607086","0.038757324"
"17199456","-1.6428375","-9.626129","0.17443848"
"17199656","-1.550003","-9.666595","0.11016846"
"17199856","-1.633316","-9.609467","0.22680664"
"17200056","-1.716629","-9.590424","0.12207031"
"17200255","-1.7023468","-9.688019","0.010192871"
"17200455","-1.7190094","-9.616608","0.28155518"
"17200655","-1.5999908","-9.559479","0.1887207"
"17200855","-1.7094879","-9.585663","0.17919922"
"17201055","-1.6952057","-9.642792","0.103027344"
"17201255","-1.6428375","-9.649933","0.014953613"
"17201455","-1.7666168","-9.545197","0.105407715"
"17201654","-1.7713776","-9.618988","-0.015991211"
"17201854","-1.6618805","-9.578522","-0.111206055"
"17202054","-1.7737579","-9.673737","-0.10644531"
"17202254","-1.5166779","-9.599945","-0.2468872"
"17202454","-1.7713776","-9.609467","-0.2230835"
"17202654","-1.754715","-9.680878","-0.044555664"
"17202853","-2.254593","-9.7951355","1.1837158"
"17203053","-4.6111603","-10.611603","-0.2397461"
"17203253","-1.7094879","-8.531158","-0.81103516"
"17203453","-3.4257355","-7.8337097","0.026855469"
"17203653","4.2652435","-9.7118225","0.7385864"
"17203853","2.6442108","-9.592804","-0.2802124"
"17204053","-1.4666901","-10.902008","1.0599365"
"17204252","-0.057510376","-14.260712","-3.6746216"
"17204452","0.9184418","-8.136017","3.237976"
"17204652","0.48283386","-8.15506","-2.8295898"
"17204852","-12.687759","-5.403351","-1.99646"
"17205052","-2.7211456","-9.219086","0.63623047"
"17205252","4.0795746","-10.154572","-2.651062"
"17205452","-0.43598938","-11.830353","-0.27069092"
"17205652","-3.961319","-4.3678894","0.03161621"
"17205851","-0.95729065","-15.446136","-3.2651978"
"17206051","1.4825897","-7.5885315","-1.7679443"
"17206251","-0.29078674","-10.880585","-1.8369751"
"17206451","-2.7758942","-13.794159","3.295105"
"17206651","-2.254593","-4.5916443","1.9692383"
"17206851","2.094345","-10.349762","-3.9626465"
"17207051","6.493271","-12.299286","-1.8512573"
"17207251","0.26145935","-9.89035","1.3527222"
"17207451","-3.0329742","-12.254059","-0.2468872"
"17207651","0.68040466","-10.033173","2.9499512"
"17207850","2.5394745","-9.523773","-2.5772705"
"17208050","0.17100525","-11.437592","-1.4037476"
"17208251","-0.9025421","-9.161957","0.2886963"
"17208451","-0.3860016","-9.176239","1.9692383"
"17208650","2.0753021","-12.796783","-3.0057373"
"17208851","1.3778534","-9.799896","0.3529663"
"17209050","-3.147232","-7.4076233","-1.7512817"
"17209251","-0.67640686","-8.845367","-6.1692505"
"17209450","-0.8073273","-8.483551","1.65979"
"17209650","-0.27174377","-9.557098","-0.1564331"
"17209849","1.5087738","-13.063385","-4.569641"
"17210051","-1.7928009","-11.282867","-0.20880127"
"17210250","-0.7716217","-7.3266907","-2.3416138"
"17210449","3.2345428","-10.187897","2.6738281"
"17210649","1.1160126","-9.89035","0.56243896"
"17210849","3.1536102","-10.725861","-0.87768555"
"17211051","0.8018036","-12.473053","1.9644775"
"17211251","-3.0353546","-3.8108826","0.02923584"
"17211449","-8.581619","-13.758453","3.847351"
"17211651","-1.1977081","-6.969635","1.3574829"
"17211849","-0.728775","-9.964142","-1.1966553"
"17212049","-7.8532257","-11.10434","1.6455078"
"17212251","-1.4643097","-6.9862976","-0.7491455"
"17212449","0.075790405","-11.856537","-8.521057"
"17212651","0.68992615","-13.520416","0.27679443"
"17212849","-0.026565552","-9.909393","0.57910156"
"17213049","-1.3095856","-9.811798","-0.33496094"
"17213249","0.4471283","-9.63327","-0.49920654"
"17213449","-0.7621002","-9.466644","0.8242798"
"17213649","-1.5428619","-9.397614","0.59576416"
"17213849","-1.4976349","-9.492828","0.37677002"
"17214049","-1.5261993","-9.602325","0.39343262"
"17214249","-1.3500519","-9.621368","0.5124512"
"17214449","-1.3833771","-9.63327","0.62194824"
"17214649","-1.4286041","-9.642792","0.63861084"
"17214849","-1.292923","-9.588043","0.5029297"
"17215049","-1.3333893","-9.6285095","0.4767456"
"17215249","-1.440506","-9.583282","0.39819336"
"17215449","-1.3548126","-9.607086","0.51483154"
"17215649","-1.7047272","-9.585663","0.6171875"
"17215849","-1.2024689","-9.645172","0.3053589"
"17216049","-1.2024689","-9.640411","0.47198486"
"17216249","-1.3095856","-9.616608","0.4696045"
"17216449","-1.2667389","-9.649933","0.40533447"
"17216649","-1.319107","-9.666595","0.37200928"
"17216849","-1.3476715","-9.607086","0.43151855"
"17217049","-1.2572174","-9.6285095","0.37438965"
"17217249","-1.3095856","-9.609467","0.4196167"
"17217449","-1.3809967","-9.571381","0.4696045"
"17217649","-1.2762604","-9.664215","0.4434204"
"17217849","-1.4524078","-9.654694","0.51483154"
"17218049","-1.3619537","-9.609467","0.55529785"
"17218249","-1.3548126","-9.599945","0.5600586"
"17218449","-1.4238434","-9.6285095","0.53149414"
"17218649","-1.4333649","-9.538055","0.5410156"
"17218850","-1.4547882","-9.607086","0.5172119"
"17219050","-1.3690948","-9.602325","0.57910156"
"17219250","-1.3429108","-9.659454","0.49816895"
"17219450","-1.5381012","-9.599945","0.543396"
"17219650","-1.3310089","-9.645172","0.6314697"
"17219850","-1.4309845","-9.580902","0.64575195"
"17220050","-1.3786163","-9.599945","0.6171875"
"17220250","-1.2595978","-9.599945","0.5910034"
"17220450","-1.2762604","-9.623749","0.6814575"
"17220650","-1.2691193","-9.626129","0.5838623"
"17220850","-1.2334137","-9.561859","0.5933838"
"17221050","-1.2976837","-9.635651","0.38391113"
"17221250","-1.3048248","-9.659454","0.4124756"
"17221450","-1.2857819","-9.649933","0.40771484"
"17221650","-1.2976837","-9.602325","0.6148071"
"17221850","-1.2786407","-9.609467","0.5743408"
"17222050","-1.3405304","-9.580902","0.68621826"
"17222250","-1.2167511","-9.614227","0.70288086"
"17222450","-1.311966","-9.673737","0.6195679"
"17222651","-1.3214874","-9.580902","0.34106445"
"17222851","-1.2191315","-9.533295","0.107788086"
"17223051","-1.33815","-7.9551086","-1.4727783"
"17223251","2.4037933","-19.51419","8.015381"
"17223451","-2.4973907","1.4997253","-5.2313843"
"17223651","-6.9867706","-13.337128","2.352478"
"17223851","5.917221","1.6734924","-5.583679"
"17224051","-7.9555817","-17.852692","11.619263"
"17224251","7.4263763","4.9012756","-3.067627"
"17224451","-3.0091705","-10.14505","6.9823"
"17224651","-1.2857819","-9.176239","-1.6989136"
"17224851","-0.2931671","-4.1369934","-19.73677"
"17225051","-7.1652985","-7.969391","0.9623413"
"17225251","4.1295624","-1.0686951","-1.7608032"
"17225451","-1.2334137","-19.51419","-1.9107666"
"17225651","1.523056","-0.561676","2.2334595"
"17225852","6.8955536","-19.51419","-1.0585938"
"17226052","-0.98347473","-0.29745483","0.103027344"
"17226252","-7.4937897","-19.51419","19.262634"
"17226452","1.1921844","3.101715","-1.4251709"
"17226652","-0.34077454","-13.80368","10.055359"
"17226852","2.4156952","3.480194","-5.2528076"
"17227052","8.457077","-19.51419","-19.73677"
"17227252","0.13768005","-0.26651","1.114685"
"17227452","-2.4331207","1.5473328","-6.5429688"
"17227652","-3.6447296","-5.027252","2.1287231"
"17227853","10.247116","1.625885","-0.90625"
"17228053","-12.542557","-12.537323","-2.9176636"
"17228253","0.4471283","-0.8425598","-1.3728027"
"17228453","-3.32576","-18.407318","-5.0861816"
"17228653","-4.3683624","-3.1610413","-5.452759"
"17228853","-6.5249786","-19.51419","1.743103"
"17229053","2.715622","-1.5376282","-3.8864746"
"17229253","-3.8146973E-4","-19.51419","6.21344"
"17229453","5.107895","1.5901794","0.48864746"
"17229653","-19.738419","-19.51419","-19.73677"
"17229853","5.062668","2.6208801","-2.1678467"
"17230053","-1.966568","-13.006256","19.262634"
"17230253","-1.3976593","2.1114807","-2.7653198"
"17230453","-0.04798889","-2.151764","7.515503"
"17230653","-0.959671","-11.337616","0.95996094"
"17230853","-1.1739044","-0.27841187","-0.8586426"
"17231053","-1.8285065","-16.474457","-0.51586914"
"17231254","-3.6899567","-1.6661682","-5.4456177"
"17231454","-0.24555969","-19.51419","-3.9578857"
"17231654","2.3585663","-1.7113953","-3.7365112"
"17231854","-0.36219788","-19.51419","-8.256836"
"17232054","0.90415955","0.7760925","-1.5489502"
"17232254","-8.529251","-19.457062","19.262634"
"17232454","-2.3474274","0.7784729","-2.2178345"
"17232654","-1.1762848","-19.028595","-9.606506"
"17232854","-0.057510376","-2.4754944","-2.1607056"
"17233054","-3.0805817","-6.6839905","-4.555359"
"17233254","-1.4476471","-9.911774","0.7719116"
"17233454","-2.1665192","-12.606354","-5.4194336"
"17233654","-4.713516","-8.5383","-2.9771729"
"17233854","-3.5042877","-7.200531","-0.94433594"
"17234054","-2.9329987","-9.764191","-0.47540283"
"17234255","1.1374359","-10.437836","-3.824585"
"17234454","-0.7787628","-9.219086","0.29345703"
"17234655","0.5375824","-2.3564758","-1.2799683"
"17234855","4.5651703","-8.571625","-0.09454346"
"17235055","7.3882904","-8.693024","-0.16833496"
"17235255","0.4304657","-3.8680115","-0.3635254"
"17235455","9.842453","-9.433319","-1.2799683"
"17235655","18.29515","3.1897888","-3.3580322"
"17235855","5.095993","-4.603546","5.7944946"
"17236055","2.0967255","1.2450256","8.198669"
"17236255","0.25907898","3.0850525","6.34198"
"17236455","2.022934","5.2012024","7.2369995"
"17236655","-0.16938782","1.8544006","7.3536377"
"17236855","1.8396454","4.0657654","9.80304"
"17237055","-0.3931427","4.2395325","8.684265"
"17237255","1.7967987","5.001251","9.848267"
"17237455","0.056747437","4.5156555","6.6466675"
"17237655","-1.3690948","3.7586975","9.200806"
"17237855","-2.1903229","5.943878","9.186523"
"17238055","-0.5573883","6.141449","8.277222"
"17238255","-0.5240631","5.1750183","7.6297607"
