Time,AccelX,AccelY,AccelZ
1518198096242.0,3.957205195,0.7171235006666665,6.164852803333335
1518198096443.0,4.037106318333333,0.5380402423333335,6.047262476666669
1518198096645.0,4.164694208333333,0.1592438423333338,5.982754426666667
1518198096846.0,4.213809198333333,-0.29310602433333327,5.560555946666668
1518198097047.0,4.309103388333333,-0.511465404333333,5.28086235
1518198097249.0,4.5986358449999996,-1.2193877709999996,4.786300583333333
1518198097450.0,4.540792828333332,-1.3991851409999998,4.485818412333334
1518198097652.0,4.924746685,-2.0582305576666666,3.935397278999999
1518198097853.0,5.009725931666666,-2.5214507909999995,4.137411445666666
1518198098054.0,4.821676614999999,-2.7787689110000002,3.8066192156666667
1518198098256.0,4.786526468333333,-3.384494011,3.608096272333334
1518198098457.0,4.5556304716666665,-3.6879913309999997,3.0691802623333335
1518198098659.0,4.506277445,-3.964828497666667,2.7303741166666664
1518198098860.0,4.8096954016666675,-4.685128797666667,2.0560149833333328
1518198099062.0,5.035592625000001,-4.880874654333334,1.6626189933333329
1518198099263.0,4.908877538333334,-5.038296535666667,1.420614606666666
1518198099464.0,4.869839452333334,-5.690518202333333,0.3380218399999996
1518198099666.0,4.6584624990000005,-6.0356720023333335,-0.6837127933333332
1518198099867.0,4.674331639000001,-6.177621465,-0.9894317899999999
1518198100069.0,4.799221775666667,-6.604580698333334,-1.4042511333333334
1518198100270.0,4.603713962333332,-7.924060101666667,-1.7843170433333333
1518198100473.0,4.169613629,-7.428784211666667,-2.31410831
1518198100675.0,3.815573115666668,-7.432830845000001,-2.276736483333333
1518198100875.0,4.162948615666668,-7.875738568333333,-2.0105316566666667
1518198101077.0,3.6446624690000005,-7.692529334999999,-2.27983098
1518198101279.0,3.2436492690000005,-7.284454383999998,-2.0558380599999997
1518198101481.0,3.6303008923333335,-7.587475637999999,-2.19350286
1518198101682.0,3.467324823,-7.793853821333332,-2.4877167159999996
1518198101882.0,3.5603973296666664,-7.355072081333334,-2.4080536293333332
1518198102083.0,3.4355072063333325,-7.477343801333333,-2.501919596
1518198102286.0,3.7663788063333334,-8.329833991333333,-2.8457245293333324
1518198102487.0,2.985934472999999,-8.680621332999998,-3.3666290693333325
1518198102688.0,2.616659572999999,-8.377758776333332,-3.8168365859999986
1518198102889.0,2.620706206333333,-8.319836409666665,-3.857064855999999
1518198103091.0,2.568734772999999,-8.960394263,-3.8102508926666654
1518198103294.0,1.929446456333333,-8.229699686333333,-3.7958893159999985
1518198103495.0,1.7659149629999997,-8.348242166333334,-3.883963044999998
1518198103696.0,2.0741730296666665,-8.549304183,-3.5294464449999987
1518198103898.0,1.9811005196666662,-8.412591516333334,-4.243557778333332
1518198104099.0,2.223977716333333,-8.211450163000002,-4.128347814999999
1518198104299.0,2.6493500196666666,-8.212084929666666,-4.602359038333332
1518198104501.0,2.7075104196666664,-8.157495086333334,-4.466122461666665
1518198104702.0,2.616818279666666,-8.131945766333336,-4.417642236999999
1518198104903.0,2.286422782999999,-7.779333466333332,-4.046463028666666
1518198105105.0,1.9768951885666661,-8.020306376333334,-3.983700576999999
1518198105308.0,2.004269455233333,-8.329199195000001,-4.056460587999998
1518198105508.0,2.0736969462333334,-8.153448461666667,-3.290536511333333
1518198105710.0,2.2857880095666667,-8.239379861666665,-2.592691052666667
1518198105912.0,2.1670074929000003,-8.539227272333333,-2.6067352420000005
1518198106112.0,1.9260345928999991,-8.573742655666667,-2.4954132220000007
1518198106313.0,1.994986008233334,-7.601797422333332,-2.2007232876666674
1518198106516.0,2.1331268749000003,-8.21966242233333,-1.8810394366666665
1518198106718.0,2.0403717482333334,-8.321066235666665,-1.763607797333333
1518198106919.0,1.442660550233333,-7.964724668999999,-1.9678436303333333
1518198107120.0,1.603811673566666,-8.195223935666665,-1.7600372263333333
1518198107321.0,1.6451507858999999,-8.510781803333332,-1.885720820333333
1518198107523.0,1.145828262566666,-8.53815607,-1.6384002585333335
1518198107724.0,1.129245010566666,-8.515463203333333,-1.6295928858666666
1518198107926.0,1.0557708905666665,-9.025656089999998,-1.8091522132
1518198108128.0,0.8479644948999997,-9.044778423333332,-1.6957672035333333
1518198108329.0,0.17130432689999975,-8.249258456666666,-1.5025604155333336
1518198108529.0,0.7734588648999998,-8.195620773333331,-1.1775604152000003
1518198108731.0,0.9203277595666666,-8.600521896666667,-0.979592888533333
1518198108932.0,0.7387054429,-8.674948163333333,-0.8451812685333331
1518198109135.0,0.6011199908999998,-8.280520696666667,-0.9528533861999998
1518198109336.0,0.8866058308999997,-8.781588806666667,-0.8100311195333333
1518198109538.0,1.0591827342333333,-8.944961623333334,-0.7527435228666665
1518198109740.0,0.31000059590000006,-8.554342723333335,-0.9148467961999998
1518198109941.0,0.25207823423333325,-8.702243123333334,-0.7435394178666667
1518198110141.0,0.12917174089999994,-9.116110323333334,-0.8732696445333331
1518198110342.0,-0.33642883376666666,-8.980508523333334,-0.5411285378666667
1518198110545.0,-0.22851867710000004,-9.204501446666669,-0.4763031011999999
1518198110746.0,-0.16401061976666667,-9.423416233333336,-0.5194671635333333
1518198110948.0,-0.20923766976666672,-9.528231900000002,-0.5571563718666667
1518198111148.0,-0.1937652576666667,-9.559970166666666,-0.5674713135333332
1518198111349.0,-0.16305847100000004,-9.564810266666665,-0.5923065191999999
1518198111552.0,-0.217172241,-9.542038066666665,-0.6000030525333333
1518198111754.0,-0.2286773676666667,-9.548544416666665,-0.6037323011999999
1518198111955.0,-0.1606781016666666,-9.553305149999998,-0.6216644302
1518198112156.0,-0.11275329699999996,-9.543069566666665,-0.6534820568666664
1518198112357.0,-0.07831726233333326,-9.539260983333332,-0.6685577411999998
1518198112558.0,-0.02698059233333332,-9.535452383333332,-0.6834747321999999
1518198112761.0,0.012612912000000006,-9.525692849999999,-0.7052154548666664
1518198112962.0,0.06640929866666663,-9.528073216666666,-0.7386199951999998
1518198113163.0,0.120285032,-9.527676483333332,-0.7699615491999998
1518198113365.0,0.16146545166666665,-9.524264616666665,-0.7856719985333331
1518198113566.0,0.20002746366666663,-9.522122283333331,-0.8088409436666665
1518198113767.0,0.247634885,-9.523867883333331,-0.8301055919999998
1518198113968.0,0.28683166333333326,-9.509268249999998,-0.8491485613333333
1518198114171.0,0.32444152666666665,-9.504904216666667,-0.8708099376666666
1518198114371.0,0.35102233800000004,-9.504824849999999,-0.8935028089999999
1518198114572.0,0.3975982666666667,-9.498397833333332,-0.9338897726666666
1518198114773.0,0.4363189700000001,-9.490145866666666,-0.9728485126666666
1518198114976.0,0.5082855233333334,-9.492764266666667,-0.9994293226666666
1518198115178.0,0.5539886486666667,-9.498318466666666,-1.0119659449999998
1518198115378.0,0.5623992936666669,-9.490701283333335,-1.0210907016666666
1518198115580.0,0.5626373303333334,-9.498873883333335,-1.0401336716666667
1518198115781.0,0.5499420180000001,-9.498239116666667,-1.0275177050000002
1518198115983.0,0.5516876230000001,-9.497763050000001,-1.0344207799999998
1518198116185.0,0.5641448983333334,-9.502920516666668,-1.0248992956666667
1518198116386.0,0.5666839610000001,-9.498001083333335,-1.037197879
1518198116587.0,0.5837432876666666,-9.497128283333335,-1.0129974400000001
1518198116789.0,0.5895355236666666,-9.519265749999999,-1.0201385533333334
1518198116991.0,0.5370086703333333,-9.518789683333335,-1.0684600866666667
1518198117192.0,0.530422977,-9.409848036666668,-1.1672454866666664
1518198117392.0,0.5439910923333332,-9.377157603333334,-1.2736480733333333
1518198117595.0,0.5308197056666666,-9.359860236666668,-1.3693389933333333
1518198117795.0,0.45829773233333326,-9.351370253333332,-1.3314910923333332
1518198117998.0,0.4374298126666666,-9.348910553333333,-1.332284549333333
1518198118200.0,0.3607818646666666,-9.358035286666667,-1.2570648226666665
1518198118400.0,0.28580017466666663,-9.33526307,-1.2289764431333332
1518198118601.0,0.23803406133333324,-9.38144227,-1.2661102364666665
1518198118802.0,0.30896912033333324,-9.329788223333336,-1.3347442698
1518198119005.0,0.28127747,-9.285910056666667,-1.4395599431333332
1518198119207.0,0.3259490999999999,-9.362796056666667,-1.4745513931333334
1518198119408.0,0.3401519813333332,-9.378744523333335,-1.5150177031333334
1518198119610.0,0.3058746373333332,-9.482687389999999,-1.5125579864666667
1518198119810.0,0.31317444266666655,-9.443569956666668,-1.5764312781333334
1518198120012.0,0.2740570109999999,-9.46713564,-1.7269500748
1518198120214.0,0.2920684866666667,-9.41199038333333,-1.6987823508
1518198120415.0,0.23343200999999994,-9.365335116666664,-1.7018768341333335
1518198120617.0,0.26921691999999997,-9.364382983333332,-1.6748199484666668
1518198120817.0,0.22462463533333332,-9.360018983333333,-1.5634979284666668
1518198121020.0,0.24081115866666666,-9.31169745,-1.5396942184666669
1518198121220.0,0.082833862,-9.277261400000002,-1.4407501251333334
1518198121422.0,-0.03443908633333333,-9.272738683333335,-1.3245880118
1518198121623.0,-0.051657104333333356,-9.289798016666667,-1.2739654524666666
1518198121825.0,-0.20376282033333332,-9.363510183333334,-1.2462738011333332
1518198122025.0,-0.250180057,-9.26535954,-1.2646820044666665
1518198122227.0,-0.36031189566666666,-9.32994694,-1.3349822954666664
1518198122429.0,-0.33920593866666665,-9.348037756666667,-1.4134551954666663
1518198122631.0,-0.4948028619999999,-9.228543123333333,-1.427182002133333
1518198122831.0,-0.5595489553333333,-9.1097626,-1.469314572133333
1518198123033.0,-0.5590728819999999,-9.082467666666666,-1.5283477721333327
1518198123235.0,-0.7214141896666666,-9.217831446666667,-1.4265472354666664
1518198123437.0,-0.7497406056666667,-9.244491613333333,-1.2428619321333334
1518198123638.0,-0.842019659,-9.291781646666667,-1.1020233078
1518198123840.0,-0.6736480756666667,-9.232272363333333,-1.2095367354666666
1518198124041.0,-0.642703252,-9.18966373,-1.3235565101333333
1518198124242.0,-0.5216217086666667,-9.171176196666668,-1.2959442068
1518198124443.0,-0.427914432,-9.180777030000002,-1.330142203
1518198124645.0,-0.34682312200000004,-9.124203563333333,-1.2797576783333333
1518198124847.0,-0.46496887533333336,-9.130154476666666,-1.2367523083333336
1518198125048.0,-0.49638977366666664,-9.097860776666666,-1.1858123683333335
1518198125250.0,-0.6294525136666667,-9.032241876666667,-1.2283416683333335
1518198125451.0,-0.7430755603333333,-8.974557576666669,-1.136618035
1518198125653.0,-0.7814788816666666,-8.875613476666668,-1.1453460616666666
1518198125854.0,-0.7694183336666666,-8.943850776666668,-1.0116485516666665
1518198126055.0,-0.6983245836666666,-8.943374693333336,-0.9089752149999999
1518198126257.0,-0.8259918203333332,-8.965194750000002,-1.031326289
1518198126457.0,-0.8105194069999999,-8.989236516666669,-1.0339446956666667
1518198126659.0,-0.8811370814999998,-8.977493350000001,-1.0739349313333333
1518198126861.0,-0.8735992401666666,-8.976303150000001,-1.165975946
1518198127063.0,-0.9271575901666665,-9.048904483333335,-1.136221307
1518198127264.0,-0.8017120321666666,-9.089053400000001,-1.230404657
1518198127464.0,-0.7058624238333332,-9.094925000000002,-1.3411712613333333
1518198127666.0,-0.7414886444999998,-9.080722100000001,-1.3807647673333334
1518198127867.0,-0.6112029968333332,-9.014944500000002,-1.3959197966666668
1518198128070.0,-0.5631195001666667,-9.11325381,-1.3603729233333335
1518198128272.0,-0.4748870754999999,-9.051364143333332,-1.2861846933333334
1518198128473.0,-0.4963897611666667,-9.044064326666666,-1.1916839616666663
1518198128673.0,-0.3456329258333334,-9.171572860000001,-1.2177886973333332
1518198128875.0,-0.2720001125000001,-9.266708350000002,-1.1762908939999999
1518198129075.0,-0.22605895150000013,-9.300192250000002,-1.0864715606666666
1518198129278.0,-0.06157530983333334,-9.280990583333335,-1.0843292263333333
1518198129480.0,-0.06554259496666669,-9.282418783333334,-1.1631195106666667
1518198129681.0,0.029354866366666635,-9.254409749999999,-1.2139801049999999
1518198129881.0,-0.0975189136333333,-9.3235992,-1.146932985
1518198130082.0,-0.13528746796666669,-9.367398,-1.0329132103333336
1518198130284.0,-0.19797057496666667,-9.378744433333335,-1.1305877703333334
1518198130487.0,-0.24121398330000002,-9.389218066666666,-1.1232086216666666
1518198130688.0,-0.3039764356333333,-9.4031829,-1.1374908463333333
1518198130889.0,-0.2643035833,-9.454043500000001,-1.1170989996666665
1518198131091.0,-0.23565978463333337,-9.528231733333334,-1.055764771
1518198131293.0,-0.17099304063333334,-9.515774466666667,-0.973880006
1518198131494.0,-0.0897430413,-9.558859166666664,-1.035928346
1518198131696.0,-0.035391233633333324,-9.552987583333332,-1.0413238526666666
1518198131896.0,-0.07577819796666667,-9.517916783333332,-1.1194000226666665
1518198132098.0,-0.13251037596666665,-9.496017383333333,-1.0730621303333334
1518198132300.0,-0.05149841363333334,-9.532675116666667,-0.9798309303333333
1518198132500.0,-0.037295532633333336,-9.550210516666665,-0.9650726303333335
1518198132702.0,-0.040151978133333335,-9.562191716666664,-0.940951537
1518198132903.0,-0.03991394113333334,-9.567745916666665,-0.9507110590000001
1518198133106.0,-0.03578796446666667,-9.54132378333333,-0.993002318
1518198133307.0,-0.04761047413333333,-9.532913149999999,-0.9872894280000001
1518198133508.0,-0.06244812046666666,-9.531088183333333,-0.9912567136666666
1518198133710.0,-0.052371216133333336,-9.529898016666666,-0.9972869870000001
1518198133912.0,-0.0530059818,-9.52307428333333,-1.006094359
1518198134113.0,-0.08299865746666667,-9.517123383333331,-1.0187103256666667
1518198134314.0,-0.09466247579999999,-9.509506216666663,-1.0298187223333333
1518198134515.0,-0.11894226079999999,-9.504666149999998,-1.0352142306666665
1518198134716.0,-0.16107482946666668,-9.494351216666665,-1.0256134006666666
1518198134918.0,-0.19138488913333332,-9.499429349999998,-1.0239471406666665
1518198135120.0,-0.2040008558,-9.493081683333335,-1.0071258526666664
1518198135320.0,-0.2262176528,-9.489352416666668,-1.017678830333333
1518198135522.0,-0.23431091466666668,-9.49236755,-1.0150604226666664
1518198135724.0,-0.240341188,-9.492129516666667,-1.0135528559999998
1518198135925.0,-0.23232727133333336,-9.490304566666667,-1.0134735126666665
1518198136127.0,-0.23351745700000004,-9.490621966666668,-1.0137115506666663
1518198136327.0,-0.24549865833333337,-9.488638333333334,-1.0141082786666664
1518198136528.0,-0.247164918,-9.487765533333336,-1.017678835333333
1518198136731.0,-0.248513795,-9.486575333333334,-1.0144256619999996
1518198136933.0,-0.2545440683333334,-9.482846100000001,-1.0133941686666663
1518198137134.0,-0.25930481033333336,-9.4826874,-1.0191864039999996
1518198137335.0,-0.26438293533333335,-9.481973266666664,-1.0237884556666663
1518198137536.0,-0.27025451733333333,-9.477291866666667,-1.0260894789999997
1518198137738.0,-0.27200012266666673,-9.477212516666665,-1.0266449023333328
1518198137939.0,-0.27541198766666664,-9.476895116666665,-1.024105842333333
1518198138141.0,-0.2778717043333333,-9.476974449999998,-1.0225189279999995
1518198138342.0,-0.30238952666666663,-9.443569916666666,-1.0050628723333328
1518198138544.0,-0.09823303099999992,-9.581948816666667,-1.0233917289999994
1518198138745.0,-0.28778992099999995,-9.364065516666667,-1.0616363556666661
1518198138947.0,-0.2855682413333333,-8.814358499999999,-1.0444976823333327
1518198139148.0,-0.08498230466666659,-9.002725199999999,-0.8581939656666665
1518198139349.0,-0.22367859633333326,-9.1421356,-1.4788360589999996
1518198139551.0,-0.2206634596666666,-8.545217900000003,-1.4675689689999998
1518198139753.0,-0.3081817686666666,-8.875613399999999,-1.4402740469999997
1518198139954.0,-0.25541687733333324,-8.72223816666667,-1.5180328369999996
1518198140156.0,-0.34896546166666664,-8.31924133,-1.4214691169999998
1518198140356.0,-0.29508972799999994,-9.298168963333335,-1.5598480169999998
1518198140559.0,-0.27319031399999993,-9.030059823333334,-1.522158807333333
1518198140760.0,-0.4440216139999999,-8.777819836666668,-1.4494781439999997
1518198140962.0,-1.146945211,-9.315069603333335,-1.2929290740000001
1518198141162.0,-1.292623922,-8.78583377,-1.2174713086666669
1518198141364.0,-1.3007171833333333,-9.078460736666667,-1.323873898666667
1518198141565.0,-1.275643941,-8.881842093333335,-1.1465362520000002
1518198141767.0,-1.205899069,-8.43552251,-1.0701263386666668
1518198141969.0,-1.5623992990000002,-9.414053426666669,-1.5928558186666666
1518198142169.0,-1.497097785666667,-8.980270460000002,-1.6261016686666665
1518198142370.0,-1.5316925106666668,-9.175619560000001,-1.7282989273333333
1518198142571.0,-1.5508941710000004,-9.089529460000003,-1.6407012726666668
1518198142773.0,-1.3521331850000002,-8.655984550000003,-1.5177947793333335
1518198142975.0,-1.3447540346666669,-9.636578450000002,-1.8166106893333331
1518198143176.0,-1.2050262513333334,-9.183117766666667,-1.7536895476666667
1518198143377.0,-1.3163482703333336,-9.5605653,-1.913174411
1518198143580.0,-1.2250213643333336,-9.382989626666665,-1.7989959443333332
1518198143781.0,-1.2435089133333337,-8.94111341,-1.6664092743333332
1518198143983.0,-1.3259490973333337,-9.44194351,-1.5103362743333333
1518198144183.0,-1.3932342526666672,-8.948809976666666,-1.5649261176666667
1518198144385.0,-0.9913482760000003,-9.560644676666666,-1.7446441366666667
1518198144587.0,-1.1828888048333337,-9.234771866666666,-1.7202056600000002
1518198144789.0,-0.9402496381666668,-8.990783833333332,-1.5477081033333335
1518198144990.0,-1.4052154428333334,-10.250952283333332,-1.3748138133333336
1518198145190.0,-1.6300018195,-9.642926166666665,-1.617135596666667
1518198145391.0,-1.3372955195,-9.895086799999998,-1.0636993133333335
1518198145593.0,-1.2545379515000001,-10.362353633333331,-0.9284942333333336
1518198145795.0,-1.2257354615,-9.60087291333333,-0.8379607853333336
1518198145998.0,-1.2904815548333333,-10.163116546666666,-0.8785064386666663
1518198146198.0,-1.3681609981666665,-10.05671395,-1.0725860286666666
1518198146399.0,-1.0372100714999997,-9.659231616666666,-0.8977874521333333
1518198146602.0,-1.0055511364999998,-9.621701098666668,-0.9436492684666664
1518198146802.0,-0.7546600231666664,-9.639395185333333,-0.9868133307999999
1518198147004.0,-0.4258514231666667,-9.842361485333335,-0.7367156641333337
1518198147206.0,-0.4091888265,-9.886795075333334,-0.7636138591333336
1518198147408.0,-0.3434905831666667,-10.392147842,-0.7630584391333333
1518198147609.0,-0.24105528116666658,-10.250674455333334,-0.9843536058000001
1518198147809.0,-0.2944549385000001,-10.681283572000002,-1.1527251891333334
1518198148012.0,0.1730499281666667,-9.715844705333332,-0.7333038124666668
1518198148212.0,0.14488220483333347,-9.668395971999997,-0.5227203191333334
1518198148413.0,0.29064026150000016,-10.414086905333333,-0.5256561191333333
1518198148614.0,0.13726501983333353,-10.015454105333331,-0.6146819958
1518198148816.0,-0.05800475516666655,-10.85247191533333,-0.8643829291333334
1518198149017.0,-0.0315032911666667,-9.638998371999998,-0.5029632591333333
1518198149220.0,-0.13536681783333337,-10.042629955333332,-0.5076446554666667
1518198149422.0,-0.017538451166666694,-9.691842588666665,-0.3933074954666667
1518198149623.0,-0.04459533783333334,-9.879653861999998,-0.4878082288
1518198149823.0,0.012930297166666695,-10.301534978666664,-0.6150787354666667
1518198150025.0,0.14805602716666674,-9.793167045333332,-0.7682952888
1518198150227.0,0.2708831738333335,-10.279952945333331,-0.7242584254666666
1518198150429.0,-0.08323668949999981,-9.698110911999997,-0.5722320554666667
1518198150630.0,-0.045468133999999764,-9.882589671999998,-0.5923858654666667
1518198150831.0,-0.06554259733333326,-10.346682688666665,-0.7321929921333332
1518198151033.0,0.43417662599999984,-9.647805755333334,-0.9206390421333334
1518198151235.0,0.47995909699999983,-10.061990338666668,-0.8731903121333333
1518198151436.0,0.35372008466666643,-9.674227905333336,-0.8046356254666666
1518198151637.0,0.3171417146666666,-9.804434205333335,-0.9558685388000001
1518198151839.0,0.4037078746666667,-10.235360725333335,-1.062112435466667
1518198152040.0,0.4458404446666666,-9.840139792000002,-0.9336517421333331
1518198152242.0,0.6423004059999998,-10.351602192000001,-0.8270904621333333
1518198152443.0,0.2776275543333333,-9.770712291999999,-0.8572418286666665
1518198152645.0,0.256442252,-10.0780182,-0.8478790353333332
1518198152846.0,0.20732726333333334,-10.316531399999999,-0.8732696596666667
1518198153047.0,0.612307739,-9.574411033333334,-1.2771392963333335
1518198153249.0,0.7621124273333332,-10.061434943333333,-1.3222076546666668
1518198153450.0,0.7364044173333332,-9.264010643333334,-1.2099334833333335
1518198153650.0,0.6402374259999999,-9.606228673333334,-1.1682769883333335
1518198153852.0,0.6522979733333333,-9.621145673333334,-1.0729034526666665
1518198154055.0,0.5697784433333333,-9.609243806666667,-0.9690399293333334
1518198154256.0,0.563510132,-10.090396156666666,-1.143124398
1518198154458.0,0.47781677199999995,-9.151260423333333,-1.032119758
1518198154659.0,0.6781646700000001,-9.637728923333333,-1.0295013513333333
1518198154859.0,0.7022064183333334,-9.237429856666667,-0.8979461713333333
1518198155062.0,0.6963348373333335,-9.470864900000002,-0.9580902133333333
1518198155263.0,0.6893524173333335,-9.524423266666666,-1.0115692173333333
1518198155464.0,0.7084747320000001,-9.499905433333334,-0.9604705853333333
1518198155666.0,0.6699920663333335,-9.493795833333333,-0.9751495403333332
1518198155866.0,0.6570587166666668,-9.520694,-0.9757049603333331
1518198156069.0,0.6252410906666667,-9.5298981,-0.9772918736666665
1518198156270.0,0.5965179473333333,-9.536959866666667,-0.9696746836666665
1518198156472.0,0.5959625273333332,-9.540530433333334,-0.9598358169999998
1518198156673.0,0.5791412373333332,-9.54648135,-0.9487274169999996
1518198156874.0,0.5734283459999998,-9.548465,-0.9407928469999997
1518198157077.0,0.563589478,-9.536642466666665,-0.9373809803333331
1518198157278.0,0.5684295659999999,-9.545370466666666,-0.9254791246666665
1518198157479.0,0.5708099369999999,-9.545053066666664,-0.9244476296666665
1518198157680.0,0.5490692156666666,-9.547988866666666,-0.9158782929999999
1518198157881.0,0.5481964136666667,-9.54798886666667,-0.9200042696666665
1518198158083.0,0.5475616469999999,-9.534896833333333,-0.9306365963333332
1518198158285.0,0.5470062269999999,-9.536483766666667,-0.9354766829999999
1518198158486.0,0.5520843520000001,-9.536245733333333,-0.9388092029999998
1518198158687.0,0.554702761,-9.536483783333333,-0.9339691163333331
1518198158888.0,0.5538299583333335,-9.53489685,-0.9350006113333333
1518198159090.0,0.5466094993333334,-9.536245716666665,-0.9373809813333333
1518198159291.0,0.5531158476666665,-9.53299255,-0.9374603279999999
1518198159494.0,0.5473236119999999,-9.531881716666664,-0.9361907959999998
1518198159695.0,0.54533997,-9.53196105,-0.9370635976666666
1518198159895.0,0.539309696,-9.534262083333335,-0.9378570546666666
1518198160098.0,0.5405792276666668,-9.535849,-0.9368255590000001
1518198160299.0,0.535977177,-9.538229383333334,-0.9382537816666666
1518198160501.0,0.5343109163333333,-9.541799916666667,-0.9297637916666665
1518198160702.0,0.560733035,-9.411672963333334,-1.064651485
1518198160902.0,0.6132598916666667,-9.458090196666669,-1.2127105649999999
1518198161105.0,0.6173065226666666,-9.181649783333336,-1.3149871763333334
1518198161306.0,0.30698548933333325,-9.022006216666668,-1.3555328309999999
1518198161508.0,0.19272767466666668,-9.236874383333333,-1.546755973
1518198161709.0,0.3138885703333333,-8.816104106666666,-1.3305389313333333
1518198161911.0,-0.09331359166666675,-8.406204220000001,-1.4687591513333333
1518198162111.0,-0.0835540703333334,-8.471426386666668,-1.7471038946666666
1518198162312.0,-0.48789976700000015,-8.497451753333333,-1.995297268
1518198162515.0,-0.772195417,-7.822775219999999,-1.956735257
1518198162716.0,-0.8638397036666667,-7.833645586666667,-2.0813080103333332
1518198162917.0,-0.6165191490000002,-8.38612972,-2.008627347
1518198163119.0,-0.606124861,-8.372958353333333,-2.0678985869999997
1518198163320.0,-0.612869246,-8.085568230000002,-2.0100555693333333
1518198163522.0,-0.3829254046666665,-8.338046263333332,-2.2034210476666667
1518198163724.0,-0.7639434666666665,-8.855776963333334,-2.2156402843333334
1518198163924.0,-0.9119232013333332,-8.452145363333333,-2.2446808110000003
1518198164125.0,-1.0502227613333333,-8.0081268,-2.253726221
1518198164327.0,-0.8647918493333331,-8.158566233333334,-2.6365692509999996
1518198164529.0,-1.4648040559999997,-8.235293533333333,-2.6352203743333336
1518198164731.0,-1.6006438993333332,-7.7525542666666665,-2.6971100210000003
1518198164931.0,-1.770840428,-7.7370025,-2.8474701326666665
1518198165133.0,-2.9971283113333334,-8.388272033333333,-3.240707426
1518198165335.0,-3.2797577013333337,-7.904898019999999,-3.4155853560000002
1518198165537.0,-3.2611908066666664,-7.778103586666666,-3.3703583060000004
1518198165738.0,-3.7913787799999996,-8.550613353333333,-3.4837433160000004
1518198165939.0,-3.899526972666666,-8.021377509999999,-3.587289458
1518198166141.0,-3.849935907666667,-7.904977359999999,-3.5238922403333337
1518198166341.0,-3.2886444323333333,-8.61107476,-3.5915741256666673
1518198166544.0,-3.384414695,-8.345028626666666,-3.7205902390000003
1518198166746.0,-3.4125030733333332,-8.171975647333333,-3.4257416090000006
1518198166947.0,-2.96404116,-8.404696614,-3.188339265666667
1518198167147.0,-2.7811493066666664,-8.928695627333333,-3.047421297000001
1518198167348.0,-2.407351713333333,-8.736123607333333,-2.833346590333334
1518198167549.0,-2.1524933133333333,-8.602188074,-2.464785800333334
1518198167751.0,-2.279605136666666,-9.316378750666667,-2.643710361666667
1518198167952.0,-1.8180511699999997,-9.269009370666666,-2.3605255416666675
1518198168155.0,-1.7466400353333333,-9.090481547333333,-1.8777069216666675
1518198168355.0,-1.0389557019999993,-9.742861913999999,-1.8531890883333335
1518198168557.0,-0.7417267019999996,-9.950350933999998,-1.7408355726666667
1518198168759.0,-0.7827484319999995,-9.772299180666666,-1.5780181911999998
1518198168961.0,-0.6494476486666659,-9.411593614,-1.6354644801999998
1518198169162.0,-0.8924041919999994,-9.597183214,-1.7822540235333326
1518198169364.0,-0.9982513593333329,-9.512680040666668,-1.9994232101999994
1518198169566.0,-0.9899993926666668,-9.161733997333332,-2.0978118968666664
1518198169767.0,-0.4899627759999999,-9.431509397333333,-2.5164398301999995
1518198169969.0,-0.6219146860000001,-9.432223510666667,-2.6230011068666665
1518198170170.0,-0.5359039440000001,-9.754843140666667,-2.8063690301999995
1518198170370.0,-0.32944644400000017,-9.839584374,-2.4482818602
1518198170572.0,0.1129851893333331,-9.459677147333334,-2.6178436268666663
1518198170774.0,0.17066951599999958,-9.602340717333334,-2.522470092866666
1518198170975.0,1.094332849333333,-10.083334384,-2.279196162866666
1518198171177.0,2.2787262013333343,-9.261471600666667,-1.9974395828666667
1518198171377.0,2.404171751333333,-9.675735514,-1.8470794761999998
1518198171578.0,2.4274993890000003,-9.828555347333332,-1.9488800128666663
1518198171781.0,2.9153961023333332,-9.056283613999998,-1.8514434895333334
1518198171981.0,2.997994979,-9.596627857333333,-1.748611459533333
1518198172182.0,2.945785505666666,-9.703347823999998,-1.8218475428666663
1518198172384.0,2.423452772333333,-8.992172290666668,-1.7783660961999999
1518198172587.0,2.5289825556666665,-9.245523124000002,-1.6659332328666665
1518198172788.0,2.5381866573333336,-9.54410099,-1.8180389441999996
1518198172990.0,2.0553680539999997,-9.262106356666669,-1.9112701461999997
1518198173191.0,1.8781097453333333,-9.02184759,-1.9549896281999999
1518198173391.0,1.8207428036666664,-9.372476243333333,-2.132485964866666
1518198173594.0,1.6955352836666666,-9.292257743333332,-2.311489872533333
1518198173795.0,1.7186248836666669,-8.996774343333332,-2.3514007612
1518198173995.0,1.6707794270000003,-9.446347076666664,-2.5002533012000003
1518198174197.0,1.614047247,-9.560366866666664,-2.7038543762000007
1518198174398.0,1.3256256023333335,-8.882833933333334,-2.4840667762000006
1518198174600.0,1.3368926923333335,-9.349466013333334,-2.6332366982000006
1518198174801.0,1.4800323423333335,-9.515457233333334,-2.669180301666667
1518198175004.0,1.1040130556666667,-9.324630800000001,-2.6813201943333334
1518198175205.0,1.346731561,-9.1515778,-2.478353894333333
1518198175406.0,1.4718597343333337,-9.521963529999999,-2.3218048243333334
1518198175608.0,1.2438201763333334,-9.620272856666666,-2.033700561
1518198175808.0,1.1394012310000001,-8.830862456666667,-1.6023773159999997
1518198176011.0,1.429409781,-9.232907143333334,-1.4672515873333332
1518198176213.0,1.4910613923333336,-9.356210376666667,-1.2722991906666665
1518198176414.0,1.1143280090000003,-9.124362209999997,-1.2453216506666667
1518198176616.0,1.279208387,-9.425875869999997,-1.0716339073333332
1518198176816.0,1.3687896836666666,-9.764285299999997,-1.107022091333333
1518198177018.0,0.6284942656666667,-9.298843399999997,-1.1979522669999998
1518198177220.0,0.6858612089999999,-9.467532366666665,-1.086233517
1518198177421.0,0.8544708289999999,-9.538467433333333,-1.0663970903333333
1518198177623.0,0.8274139423333333,-9.5136322,-1.0120452836666667
1518198177823.0,0.8789093023333334,-9.511807266666665,-0.9987945503333333
1518198178026.0,0.9195343023333333,-9.500619533333333,-1.000540155333333
1518198178227.0,0.9300872809999999,-9.505856366666666,-0.989749142
1518198178428.0,0.907711791,-9.509823633333337,-0.9660247776666667
1518198178629.0,0.9110443109999999,-9.517599500000001,-0.963565062
1518198178830.0,0.9119964593333333,-9.521487466666667,-0.9746734606666667
1518198179031.0,0.9062835676666666,-9.524264566666668,-0.9732452386666667
1518198179233.0,0.913742063,-9.522360266666668,-0.9685638419999999
1518198179434.0,0.913265988,-9.521646166666665,-0.9632476803333333
1518198179636.0,0.9113616913333333,-9.521725499999999,-0.9626922603333333
1518198179838.0,0.9115203813333332,-9.523233066666664,-0.961978149
1518198180040.0,0.9134246779999999,-9.527676433333331,-0.9565826403333334
1518198180240.0,0.9063629113333332,-9.527279699999998,-0.9534881586666668
1518198180442.0,0.9008880576666666,-9.525613433333332,-0.9465850833333335
1518198180644.0,0.8845428423333332,-9.525851466666666,-0.9460296633333334
1518198180846.0,0.880258174,-9.525454733333332,-0.9421417246666667
1518198181047.0,0.8816070506666666,-9.522677633333332,-0.9433319096666667
1518198181249.0,0.8821624706666666,-9.521011400000003,-0.9384918210000001
1518198181450.0,0.873593134,-9.520535333333333,-0.9315094
1518198181650.0,0.870498652,-9.524820016666668,-0.9240509046666667
1518198181853.0,0.8633575386666666,-9.519027783333332,-0.9273040796666667
1518198182054.0,0.8568511899999999,-9.524661316666664,-1.001968385
1518198182256.0,0.8301910336666666,-9.483560216666666,-1.102975465
1518198182457.0,0.8207488956666666,-9.457138116666664,-1.0899627703333334
1518198182659.0,0.7804412783333334,-9.489114449999999,-1.0694122333333336
1518198182860.0,0.8142425483333333,-9.494747983333335,-1.0933746366666668
1518198183061.0,0.6570587096666667,-9.472927916666666,-1.0539398220000002
1518198183263.0,0.6075469910000001,-9.396914733333334,-1.0834564253333334
1518198183464.0,0.5387542676666667,-9.359622233333335,-1.010379032
1518198183666.0,0.483132931,-9.342800966666667,-0.9274627720000002
1518198183866.0,0.47845153533333334,-9.359860266666667,-0.8293121386666665
1518198184067.0,0.5693023653333334,-9.348037733333335,-0.891043097
1518198184270.0,0.4731353733333335,-9.3255829,-0.9942718569999999
1518198184471.0,0.4345733613333334,-9.27194522,-0.9092132646666666
1518198184672.0,0.4256072980000001,-9.256790186666665,-0.9243682936666667
1518198184873.0,0.5164581263333334,-9.338754286666662,-0.9173858716666667
1518198185076.0,0.4209259013333334,-9.40953065333333,-0.9601532016666666
1518198185276.0,0.5074127146666667,-9.373507686666665,-1.0234710716666668
1518198185478.0,0.5255828813333333,-9.337802120000001,-1.04640198
1518198185680.0,0.47162780466666665,-9.295590220000001,-1.0556060823333333
1518198185880.0,0.5142364479999999,-9.296463020000001,-1.048306277
1518198186083.0,0.48940124266666657,-9.33431092,-1.0825042756666665
1518198186284.0,0.42703551933333334,-9.296859753333333,-1.0335479756666666
1518198186486.0,0.419656369,-9.296145636666667,-1.0252166776666665
1518198186686.0,0.41616515766666656,-9.324551403333333,-0.9188934356666667
1518198186888.0,0.3454681359999999,-9.325662236666666,-0.8346282989999999
1518198187090.0,0.35300597599999994,-9.322171036666663,-0.7705169723333333
1518198187292.0,0.12290343733333323,-9.359225469999998,-0.7691680943333334
1518198187493.0,0.028402703999999973,-9.23393860333333,-0.8266937286666666
1518198187694.0,-0.05633850599999999,-9.230526736666663,-0.9169097940000001
1518198187895.0,0.045620722666666724,-9.159194936666664,-0.761788944
1518198188097.0,0.03752746133333333,-9.195693969999997,-0.7582183873333335
1518198188299.0,-0.05379944233333339,-9.295828269999998,-0.6691925073333336
1518198188500.0,-0.14115906100000003,-9.209817519999998,-0.6354705836666666
1518198188700.0,-0.3132598883333334,-9.237509153333331,-0.7223541306666669
1518198188901.0,-0.3521392826666667,-9.22449645333333,-0.5669952440000001
1518198189103.0,-0.20050964266666668,-9.269168086666664,-0.6079376263333336
1518198189304.0,-0.26509704599999995,-9.371365353333331,-0.49590149300000025
1518198189506.0,-0.05356140266666659,-9.420401019999998,-0.5892913863333336
1518198189708.0,-0.03229675466666659,-9.420242319999998,-0.8400238130000002
1518198189909.0,-0.1000579856666666,-9.347561666666666,-0.9718170263333336
1518198190112.0,-0.18829040766666666,-9.3293915,-0.8521637046666669
1518198190312.0,-0.10521545666666664,-9.366604633333333,-0.7182281567666666
1518198190514.0,-0.2343109213333333,-9.31875918,-0.8022552547666667
1518198190716.0,-0.388955698,-9.175302160000001,-0.8081268381
1518198190917.0,-0.6550811813333334,-9.116189609999998,-0.9914947634333333
1518198191118.0,-0.6511932446666666,-9.154830976666666,-1.0166473534333333
1518198191319.0,-0.7155426046666667,-9.225131276666666,-0.9281768961
1518198191522.0,-0.7128448513333334,-9.30852361,-0.9034210361000001
1518198191722.0,-0.7983001746666669,-9.45245671,-0.8801727444333335
1518198191923.0,-0.9070831336666667,-9.40834051,-0.9639618077666668
1518198192125.0,-1.0336395316666667,-9.32812201,-1.0247406144333335
1518198192326.0,-0.9994415334333334,-9.361447176666665,-1.0266449111000002
1518198192528.0,-1.0569671681000001,-9.335739159999997,-1.0363250861
1518198192730.0,-1.0660919237666666,-9.308047493333332,-1.1827972527666666
1518198192932.0,-0.9957122850999999,-9.303445459999999,-1.2308807481
1518198193133.0,-1.087356571766667,-9.277975493333333,-1.2833282567666664
1518198193333.0,-0.9544525184333335,-9.241079726666666,-1.2868194687666665
1518198193536.0,-0.9169219984333336,-9.356527726666664,-1.2406402687666667
1518198193737.0,-0.9076385517666667,-9.353036493333331,-1.1654205421000001
1518198193939.0,-1.046414186766667,-9.418417359999998,-1.3722747887666664
1518198194140.0,-1.1036224401,-9.377792359999997,-1.3291900720999998
1518198194340.0,-1.0614898734333333,-9.323202493333332,-1.296817025433333
1518198194543.0,-1.0197540334333335,-9.436349476666667,-1.334426888433333
1518198194745.0,-0.8674896334333334,-9.36747741,-1.2465911927666664
1518198194946.0,-0.9286651691000001,-9.376205443333333,-1.3701324510999997
1518198195147.0,-0.9845245447666667,-9.34756164333333,-1.3545013477666663
1518198195348.0,-0.9216034014333332,-9.322250376666666,-1.4178985637666666
1518198195549.0,-1.1198089681000003,-9.304873643333332,-1.3819549604333332
1518198195751.0,-1.1560699561000005,-9.315982043333333,-1.1996185304333333
1518198195952.0,-1.1453582861000002,-9.372476196666666,-1.1462188717666668
1518198196155.0,-1.2005035507666668,-9.399136363333332,-1.1813690181
1518198196356.0,-1.2415252784333335,-9.38659973,-1.1913665766666666
1518198196557.0,-1.1358367951,-9.486019896666665,-1.1774810786666665
1518198196759.0,-1.0303863550999999,-9.641934216666666,-1.1368560776666667
1518198196960.0,-0.9041473450999998,-9.6190033,-0.9378570486666666
1518198197162.0,-0.8689178517666666,-9.5058563,-0.8518463076666667
1518198197363.0,-0.9503265450999998,-9.4690399,-0.8608123716666666
1518198197563.0,-1.0251495417666665,-9.4218292,-0.8468475283333334
1518198197766.0,-0.9465179497666665,-9.320504733333333,-0.8472442566666666
1518198197966.0,-0.9376312307666664,-9.364462233333334,-0.7570281919999998
1518198198167.0,-0.8378936807666667,-9.404214433333335,-0.6432464553333334
1518198198369.0,-0.865347294,-9.407705666666667,-0.6720489460000001
1518198198570.0,-0.854635624,-9.436111433333332,-0.6534820509999999
1518198198772.0,-0.8912933383333335,-9.433493033333333,-0.6020660366666666
1518198198973.0,-0.9477081336666667,-9.435159266666666,-0.6248382533333333
1518198199176.0,-0.9193023703333334,-9.463644366666665,-0.6192047079999999
1518198199376.0,-0.8770111116666668,-9.4640411,-0.6003204306666666
1518198199578.0,-0.8683624316666666,-9.476260333333332,-0.574057004
1518198199779.0,-0.8473358216666667,-9.4791168,-0.5439849816666666
1518198199980.0,-0.8615387033333333,-9.493319666666665,-0.47074889833333333
1518198200183.0,-0.8438446099999999,-9.492050133333333,-0.4266326883333334
1518198200383.0,-0.8230560346666667,-9.487210066666668,-0.42472839166666665
1518198200585.0,-0.826150518,-9.481735200000001,-0.4175872786666666
1518198200787.0,-0.8180572546666667,-9.495382666666666,-0.4242523176666666
1518198200988.0,-0.8113128713333333,-9.491653433333333,-0.4149688703333333
1518198201190.0,-0.8071868946666666,-9.4960968,-0.40830383166666656
1518198201390.0,-0.8142486613333332,-9.495303333333332,-0.4079864489999999
1518198201592.0,-0.8175811799999999,-9.4980011,-0.40076598966666666
1518198201795.0,-0.801870729,-9.503396599999999,-0.39306945633333323
1518198201996.0,-0.7945709236666668,-9.501492299999999,-0.3887847883333333
1518198202197.0,-0.7934600836666668,-9.504190066666666,-0.38902282533333327
1518198202398.0,-0.7913177503333334,-9.504745499999997,-0.38783263966666665
1518198202600.0,-0.7867950470000001,-9.50657043333333,-0.38140563766666663
1518198202801.0,-0.7842559836666668,-9.508157333333333,-0.37807311799999993
1518198203002.0,-0.7899688736666668,-9.511093133333333,-0.37283630166666665
1518198203205.0,-0.7916351336666668,-9.514108266666664,-0.36791686799999995
1518198203405.0,-0.7944122336666668,-9.521249366666666,-0.3586334213333333
1518198203607.0,-0.7678314240000002,-9.311856059999998,-0.3698211646666667
1518198203808.0,-1.0037261993333333,-9.176889016666665,-0.3775970446666667
1518198204009.0,-1.1047332793333333,-9.141897583333332,-0.8075714093333333
1518198204212.0,-1.032766726,-8.67566223,-0.749093626
1518198204413.0,-0.902481081,-8.767465196666667,-0.8406585653333334
1518198204615.0,-0.9454864510000001,-8.791268896666667,-1.161373892
1518198204815.0,-0.7283172609999999,-8.237197863333332,-1.0994048963333334
1518198205018.0,-0.4379119876666667,-8.98225403,-1.225802601
1518198205219.0,-0.37245178433333337,-8.681057740999998,-1.177401721
1518198205420.0,-0.453146363,-8.655349741,-1.1551055783333333
1518198205622.0,-0.6461151196666667,-8.882595841,-1.3840179283333334
1518198205822.0,-0.6708709796666668,-8.363040164333333,-1.3307769606666666
1518198206024.0,-0.16615294966666672,-9.052078264333332,-1.5345367273333335
1518198206225.0,-0.17194518633333333,-8.679391494333334,-1.475900254
1518198206428.0,-0.13504943433333336,-8.697958394333336,-1.5061309673333334
1518198206629.0,-0.0968841510000001,-8.748660294333334,-1.6132476656666668
1518198206829.0,0.13528137566666648,-8.188955707666665,-1.2491302223333336
1518198207032.0,0.27310486233333336,-9.065567041,-1.6520477180000004
1518198207232.0,0.11941223466666653,-8.676297017666668,-1.6485565070000003
1518198207435.0,0.21296081799999994,-8.606710831,-1.6592681770000004
1518198207637.0,-0.06887512000000007,-9.048825097666665,-1.8710418630000003
1518198207837.0,-0.133462521,-8.559658844333333,-1.8824676446666668
1518198208040.0,0.4960662903333331,-9.150943011,-2.200881948
1518198208241.0,0.5588287436666665,-8.909097294333332,-2.2196075340000005
1518198208441.0,0.49804993366666656,-8.696054071,-2.2709442056666673
1518198208642.0,0.6749908469999998,-9.041366571000001,-2.510250847666667
1518198208845.0,0.6492034936666666,-8.567037957666667,-2.507315056666667
1518198209046.0,1.1870086736666665,-9.186807257666665,-2.4425689620000006
1518198209248.0,1.2070037913333334,-8.805313130999997,-2.431460563666667
1518198209448.0,1.3529998846666667,-8.777938864333331,-2.5412750170000002
1518198209650.0,1.3800567693333332,-9.093417370999997,-2.6003875670000007
1518198209852.0,1.7871002259999997,-8.728189100999996,-2.4872405936666673
1518198210054.0,1.8194732693333329,-8.433023074333331,-1.951736443666667
1518198210255.0,1.762741091333333,-8.75127869433333,-1.8899261403333338
1518198210456.0,1.7353668246666665,-9.028274560999998,-1.7783660836666666
1518198210658.0,1.2090667746666666,-8.804440347666667,-1.384335327
1518198210859.0,1.4498016246666663,-9.486892747666666,-1.4752655036666664
1518198211061.0,1.2547698879999998,-8.797061214333334,-1.257144167
1518198211261.0,1.096951284666666,-8.55045477,-1.2542877236666667
1518198211462.0,1.6653045646666662,-8.968209903333335,-1.327761845
1518198211665.0,1.9034210279999997,-8.542837593333333,-1.0897247391666667
1518198211866.0,1.9595184413333329,-8.60845649,-1.0568756158333332
1518198212068.0,1.6218231179999998,-8.894378756666667,-0.7910675091666667
1518198212269.0,1.6448333716666663,-8.837091160000002,-0.8572418245
1518198212470.0,1.7839263943333332,-8.863751293333335,-0.8084442168333333
1518198212672.0,1.7494110143333332,-9.032757660000001,-0.8715240501666666
1518198212872.0,1.5723114056666665,-9.090521333333333,-1.2035064835000002
1518198213075.0,1.770278919,-9.120990066666666,-1.0164093001666668
1518198213277.0,1.9234161266666665,-9.290472489999999,-0.9521392798333336
1518198213478.0,1.8536712536666664,-9.256195143333333,-0.9173065158333333
1518198213679.0,2.0704437136666667,-9.084491043333333,-0.9142120291666666
1518198213880.0,2.036721787,-9.013000563333332,-0.7934478675
1518198214081.0,1.2931732003333334,-9.351568696666666,-0.3990203808333334
1518198214282.0,1.2538177302000002,-9.108453459999998,-0.3659332228333333
1518198214484.0,1.6102386368666668,-9.493121416666666,-0.5828643761666665
1518198214685.0,1.5520782435333336,-9.113452249999998,-0.31316832949999995
1518198214887.0,1.6664154002,-9.576910496666665,-0.35395202116666663
1518198215088.0,1.1931182768666664,-8.950079429999999,-0.4271087601666666
1518198215291.0,1.2734954758666668,-9.32102059,-0.4655120798333333
1518198215492.0,1.2280303892,-9.350616556666669,-0.3715667665
1518198215694.0,1.2834930348666664,-9.235247923333336,-0.3186431831666667
1518198215895.0,1.2349334648666663,-9.746154903333334,-0.4246490431666665
1518198216097.0,1.4000518748666666,-10.076629763333335,-0.5417633011666666
1518198216297.0,1.4804290728666667,-10.220086796666667,-0.6810943561666665
1518198216498.0,1.4831268262,-9.847796729999999,-0.720132442833333
1518198216700.0,2.1567718462000003,-10.041162209999998,-0.8101104708333331
1518198216901.0,1.7955108728666667,-9.910479809999998,-0.7959869361666664
1518198217104.0,1.7914642395333333,-9.849066209999998,-0.8993743861666664
1518198217305.0,1.9880035495333332,-10.394488576666665,-0.9630096394999997
1518198217507.0,1.6061920162000003,-10.000061076666666,-0.922860712833333
1518198217707.0,1.6527679428666668,-10.190332086666665,-0.9266693066666665
1518198217910.0,1.7212432828666668,-10.652203433333332,-1.0160125713333332
1518198218111.0,1.639279172866667,-9.679226716666665,-1.069808958
1518198218311.0,1.7169586158666668,-10.113882483333333,-1.0601287826666665
1518198218513.0,1.6357879558666668,-10.070321716666664,-1.0835357650000002
1518198218715.0,1.7385406392,-9.84791568333333,-0.9131805416666665
1518198218917.0,1.7815460112,-10.347396896666664,-0.9496795656666666
1518198219118.0,1.5505706845333334,-9.436190830000001,-0.7379852299999999
1518198219318.0,1.6535614068666666,-9.654312163333334,-0.8105072033333334
1518198219519.0,1.7287811331999998,-9.755636630000001,-0.8408172620000001
1518198219721.0,1.8940582332,-9.487289463333335,-0.630392457
1518198219923.0,2.0964691232000003,-10.047232096666667,-0.7429046653333333
1518198220124.0,2.315621956533333,-9.112301663333334,-0.8189178486666667
1518198220325.0,2.3853668299999997,-9.5936127,-0.8301849383333333
1518198220528.0,2.187399296666667,-9.417861966666665,-0.5620758050000001
1518198220730.0,2.1706573533333335,-9.450314333333333,-0.5873870846666668
1518198220931.0,2.183114626666667,-9.461819466666666,-0.5517608636666669
1518198221133.0,2.21723328,-9.465469366666664,-0.5439056393333335
1518198221333.0,2.217312623333333,-9.472769166666666,-0.5185150150000002
1518198221534.0,2.220089723333333,-9.458010866666667,-0.5060577400000001
1518198221737.0,2.2142974866666667,-9.464437866666668,-0.4830474853333334
1518198221938.0,2.198349,-9.452456666666668,-0.4747161853333334
1518198222138.0,2.203665163333333,-9.449679566666669,-0.45614929066666676
1518198222339.0,2.2099334699999997,-9.4526947,-0.43155212266666676
1518198222541.0,2.208663936666666,-9.452615366666667,-0.4145721416666667
1518198222744.0,2.2077117866666662,-9.457058733333332,-0.397116087
1518198222944.0,2.214059443333333,-9.4550751,-0.38132629233333337
1518198223147.0,2.2265960666666667,-9.458566333333334,-0.367361449
1518198223347.0,2.2272308333333335,-9.459518466666667,-0.3495086660000001
1518198223549.0,2.2243743866666663,-9.458248933333333,-0.3337188716666667
1518198223751.0,2.2333404499999996,-9.463723766666668,-0.33419494566666663
1518198223953.0,2.2367523166666663,-9.454916400000002,-0.32879943766666664
1518198224154.0,2.25278015,-9.447616583333334,-0.33078308033333337
1518198224355.0,2.2603179933333335,-9.44166565,-0.3270538319999999
1518198224557.0,2.270553586666667,-9.44031675,-0.31864318733333324
1518198224758.0,2.270553586666667,-9.445712283333334,-0.3203887929999999
1518198224960.0,2.368942256666667,-9.405642683333335,-0.31189880266666664
1518198225161.0,2.35870666,-9.407546983333335,-0.32118224966666664
1518198225363.0,2.33323669,-9.416116316666669,-0.345700073
1518198225563.0,2.3455352733333332,-9.40889585,-0.33475036599999997
1518198225765.0,2.3062591513333333,-9.39048765,-0.337765503
1518198225967.0,2.326809688,-9.395248383333332,-0.35307922466666664
1518198226168.0,2.183273308,-9.384219316666666,-0.44773864799999996
1518198226369.0,2.046322624666667,-9.293923900000001,-0.495108032
1518198226570.0,2.0826629546666666,-9.21457821,-0.4824127193333333
1518198226772.0,2.497720324666667,-9.585678076666667,-0.5759613063333333
1518198226973.0,2.532553091333333,-9.448965430000001,-0.8351837306666666
1518198227175.0,2.5662750146666666,-9.061520363333333,-0.5238311893333333
1518198227376.0,2.6076934713333335,-9.014389029999998,-0.5533477903333333
1518198227578.0,2.899606318,-9.365176363333333,-0.399099742
1518198227780.0,2.6048370313333336,-9.494985929999999,-0.7172760199999999
1518198227980.0,2.5634185746666667,-9.13253476,-0.9246856833333332
1518198228183.0,2.734329218,-9.101748626666666,-0.9469818266666666
1518198228383.0,3.4147186179999993,-9.20950009333333,-0.8680328529999999
1518198228584.0,3.6906036379999994,-9.663833593333331,-0.8938995506666666
1518198228785.0,3.5615081813333327,-9.451583826666665,-0.8435150306666664
1518198228988.0,3.5715850846666664,-9.285910003333333,-0.6127777266666664
1518198229189.0,4.037106311333333,-9.312014736666667,-0.40513001999999987
1518198229390.0,3.927133164666667,-10.163473503333332,-0.7992401196666665
1518198229593.0,3.746859728,-9.761032103333333,-1.071633927333333
1518198229794.0,3.7711395146666673,-9.492605593333334,-0.9200042886666664
1518198229995.0,4.220394881333334,-9.610195910000002,-0.8783477953333331
1518198230197.0,4.341714458,-9.823635876666668,-0.9761017026666665
1518198230398.0,4.245468119000001,-9.330105600000001,-0.8560516576666665
1518198230600.0,4.174850445666667,-9.214340233333335,-0.6732391543333329
1518198230800.0,4.520400975666668,-9.406198133333334,-0.8110626419999997
1518198231002.0,4.137557952333334,-9.967410300000001,-0.6279327583333332
1518198231204.0,3.6401397423333335,-9.369699133333334,-0.9045318803333332
1518198231404.0,3.609353609000001,-9.328598066666668,-1.0413238769999997
1518198231607.0,4.405905139000001,-9.819033866666667,-1.0503692869999999
1518198231807.0,4.363375842000001,-9.848550466666667,-1.1771637216666664
1518198232008.0,4.292758167000001,-9.454599053333332,-1.0527496583333331
1518198232210.0,4.5351592903333335,-9.633444286666665,-0.7461578616666663
1518198232412.0,4.646163927,-10.061196953333331,-0.7400482449999998
1518198232614.0,4.719479363666666,-9.730801443333332,-0.5879425243333333
1518198232815.0,4.1519988969999995,-9.291305593333332,-0.4615448163333333
1518198233016.0,4.362899763666666,-9.900680606666667,-0.1535247829999999
1518198233219.0,3.888095077,-10.004464785666668,-0.629043583
1518198233420.0,3.6953643636666675,-9.763174495666668,-0.5738983196666667
1518198233621.0,3.707980330333334,-9.498953295666666,-0.7539337229999997
1518198233822.0,2.8420013470000005,-10.301217695666667,-0.1264678896666666
1518198234023.0,2.537313837000001,-10.431900065666667,-0.14868468966666662
1518198234224.0,2.623562620333334,-10.378738432333334,-0.473129283
1518198234426.0,1.8262176570000008,-10.984146132333333,-0.4384552096666667
1518198234629.0,1.1728057903333335,-10.128958142333335,-0.477017223
1518198234829.0,1.4568634103333336,-10.206002822333335,-0.6015106263333333
1518198235031.0,1.9818145903333337,-10.648355112333334,-0.901834113
1518198235233.0,1.4435333533333339,-10.367788702333335,-1.2432586696666665
1518198235434.0,1.5673126500000008,-9.346371449,-0.7714691263333332
1518198235636.0,2.3589447333333338,-9.902743515666668,-0.35173034633333344
1518198235836.0,2.4518585500000007,-10.183151225666666,-0.43916930966666673
1518198236038.0,1.88652042,-9.745956401666666,-0.3506988463333333
1518198236240.0,2.1223358433333335,-9.729611168333332,-0.1405120763333334
1518198236442.0,2.119479399,-10.078018145,-0.22485655500000018
1518198236643.0,2.000857572333333,-10.104360911666666,-0.38561095300000003
1518198236845.0,1.6821258923333333,-10.002639711666664,-0.24437559966666653
1518198237046.0,1.9976044156666666,-9.552511544999998,-0.435360708
1518198237246.0,2.515969892333333,-10.164108211666663,-0.12567442799999995
1518198237448.0,2.576828045666667,-10.19425957833333,0.03753968866666672
1518198237649.0,1.7834503456666668,-9.709695378333333,0.03968202299999995
1518198237852.0,1.8922333046666666,-9.683114544999999,0.16623842066666666
1518198238053.0,1.9794342296666665,-10.053182891666665,0.08276674066666671
1518198238253.0,1.8964386263333335,-9.885525424999997,-0.12551573033333324
1518198238456.0,1.9441253963333336,-9.54767145833333,-0.08401792599999992
1518198238656.0,1.8508941863333335,-9.954397524999996,-0.24382017999999997
1518198238859.0,2.016012593,-10.021127274999998,-0.28285826599999997
1518198239059.0,1.7778961496666668,-9.545529108333332,-0.33363951766666666
1518198239260.0,2.2336578663333335,-9.829983462666664,-0.17359923533333332
1518198239462.0,2.401712066333334,-10.117056219333332,-0.19740294633333333
1518198239665.0,2.109402489666667,-10.032235685999998,-0.17010802299999994
1518198239865.0,3.290859989666667,-9.096115086000001,-0.47646178733333333
1518198240067.0,3.6526764063333337,-9.323123152666666,-0.24556579299999998
1518198240267.0,3.4082122930000005,-9.405245952666668,0.0987945723333333
1518198240470.0,3.5381012096666673,-8.689071652666666,-0.01744688300000002
1518198240671.0,3.929116826333334,-9.090402209333332,0.050711075999999904
1518198240872.0,3.788278199666667,-9.222433462666666,0.12727967599999998
1518198241074.0,3.2662628096666673,-8.945278929333332,0.20273744100000005
1518198241276.0,3.349734490000001,-9.199026472666665,0.33952942766666666
1518198241477.0,3.3517181300000005,-9.365890492666665,0.25653382199999997
1518198241677.0,2.75376891,-9.211325059333333,0.106173713
1518198241879.0,2.64815978,-9.194345092666667,0.03801575233333342
1518198242082.0,2.7799529933333327,-9.509426866666667,-0.08893737633333333
1518198242282.0,2.43630676,-9.312094100000001,-0.19875183066666668
1518198242483.0,2.5473113966666663,-9.453805533333334,-0.2305694575
1518198242685.0,2.7482147166666664,-9.537277200000002,-0.2569915761666666
1518198242887.0,2.73591613,-9.438967866666669,-0.2554046628333333
1518198243087.0,2.7242523100000002,-9.362716633333335,-0.24905700649999998
1518198243288.0,2.72687072,-9.346371433333333,-0.2630218501666667
1518198243492.0,2.735281366666667,-9.348434433333335,-0.25722961383333337
1518198243692.0,2.7403594900000003,-9.347402933333333,-0.2485809325
1518198243893.0,2.7344879066666667,-9.353909299999998,-0.24009094216666663
1518198244094.0,2.7114776566666667,-9.369143699999999,-0.2596099848333333
1518198244296.0,2.71044616,-9.370175199999998,-0.2600067138333333
1518198244499.0,2.71227111,-9.368270899999997,-0.2623077391666666
1518198244700.0,2.7130645666666666,-9.36954043333333,-0.26310119616666666
1518198244901.0,2.7182220366666665,-9.36835023333333,-0.2639739988333333
1518198245103.0,2.727346793333333,-9.369302399999999,-0.26143493649999994
1518198245305.0,2.731631463333333,-9.365097066666667,-0.2585784911666666
1518198245506.0,2.7325042666666666,-9.3634308,-0.2615936278333333
1518198245707.0,2.7355194033333334,-9.363113400000001,-0.2632598878333333
1518198245909.0,2.7327423033333336,-9.3620819,-0.26214904783333326
1518198246110.0,2.7332183766666667,-9.3626373,-0.26421203616666666
1518198246312.0,2.73536071,-9.362240566666664,-0.25548400883333333
1518198246513.0,2.73480529,-9.361288399999998,-0.25397644016666665
1518198246713.0,2.73298034,-9.360336266666664,-0.2567535398333333
1518198246916.0,2.7318694999999997,-9.365652433333329,-0.25334167449999995
1518198247117.0,2.725521843333334,-9.366763266666666,-0.24334411606666664
1518198247318.0,2.7499603200000005,-9.395645116666666,-0.23207702619999998
1518198247520.0,2.7479766800000007,-9.402389483333332,-0.25461120719999997
1518198247720.0,2.823831166666667,-9.402389483333334,-0.29253845486666663
1518198247922.0,2.763687124333334,-9.36954035,-0.3975128208666666
1518198248124.0,2.6149139310000002,-9.36168515,-0.33244934553333333
1518198248325.0,2.556118764333334,-9.384695416666668,-0.3506195112
1518198248527.0,2.590634147666667,-9.424606316666667,-0.30245666903333335
1518198248729.0,2.5657195943333333,-9.408975216666668,-0.4410736190333333
1518198248930.0,2.449398795333333,-9.391439816666669,-0.6745880290333334
1518198249130.0,2.4353546053333326,-9.354544083333334,-0.7138641537
1518198249332.0,2.551516718666666,-9.326773083333334,-0.6934723080333334
1518198249534.0,2.5861114453333327,-9.347561650000001,-0.7399688910333333
1518198249735.0,2.525015255333333,-9.392788683333334,-0.7712310990333333
1518198249937.0,2.5775421053333334,-9.374856550000002,-0.8550995070333334
1518198250139.0,2.5769866853333334,-9.343991050000001,-1.0058563443666668
1518198250339.0,2.5606414720000004,-9.240048163333336,-1.0357696743666667
1518198250542.0,2.4497161786666664,-9.195455863333336,-1.0646515100333334
1518198250743.0,2.447573845333333,-9.219656296666667,-1.0335479943666666
1518198250944.0,2.3209381053333336,-9.253219529999999,-0.9934784137
1518198251146.0,2.3358550953333332,-9.252584763333333,-1.0838531710333332
1518198251347.0,2.2814239419999995,-9.300350863333332,-1.1232086386999998
1518198251549.0,2.261746208666667,-9.303286663333333,-1.185177634366667
1518198251751.0,2.2817413286666666,-9.27662653,-1.2156463843666667
1518198251952.0,2.321969602,-9.29257503,-1.2273102033666667
1518198252153.0,2.275393675333333,-9.27972103,-1.2219146957
1518198252354.0,2.289120482,-9.214022796666665,-1.3032440417
1518198252555.0,2.1615325920000004,-9.218783563333332,-1.3417267083666666
1518198252756.0,2.277297972,-9.207040396666667,-1.3333160636999999
1518198252958.0,2.313796995333333,-9.20537413,-1.3620392090333333
1518198253159.0,2.245321655333333,-9.219497663333332,-1.4153595224666664
1518198253361.0,2.238577268666666,-9.10928648,-1.4390838876666665
1518198253564.0,2.0487029986666663,-9.128884879999998,-1.5741302776666666
1518198253765.0,1.923733522,-9.181570429999997,-1.3917938509999999
1518198253966.0,2.0743316710000004,-9.205770863333333,-1.2761078150333336
1518198254167.0,2.1780365043333334,-9.232827729999999,-1.3201446790333333
1518198254368.0,2.231039437666667,-9.192996196666666,-1.2281830090333332
1518198254570.0,2.255715951,-9.10801693,-1.4587616223666666
1518198254772.0,2.3279205510000005,-9.07675473,-1.2930877880333336
1518198254973.0,2.4474151833333337,-9.09548033,-1.1183685447
1518198255175.0,2.5281097700000004,-9.126504496666664,-1.1098785513666667
1518198255375.0,2.3295868153333337,-9.14443663,-1.1013885610333332
1518198255577.0,2.2040619119333336,-9.032479829999998,-1.1072601410333334
1518198255779.0,2.3229217786,-9.128012063333331,-1.0049041843666668
1518198255979.0,2.3456940019333334,-9.154830896666665,-0.9511871443666667
1518198256182.0,2.4066315052666667,-9.176333596666668,-0.7640899743666669
1518198256382.0,2.3180817005999996,-9.360256949999998,-0.7932891943666666
1518198256585.0,2.4697906872666664,-9.307888793333332,-0.9115936443666668
1518198256786.0,2.4835174939333333,-9.227670303333333,-1.0667938390333334
1518198256988.0,2.6435577772666665,-9.152371236666665,-1.0630645923666668
1518198257189.0,2.6470489905999997,-9.126266503333333,-1.0180755790333333
1518198257389.0,2.7397247705999996,-9.077944969999999,-0.9931610290333335
1518198257592.0,2.6750580215999995,-9.109048470000001,-0.9565033123666667
1518198257794.0,2.7417084082666667,-8.982095336666669,-0.9472198657000002
1518198257994.0,2.6118988362666666,-9.010263036666668,-0.9144500897000001
1518198258195.0,2.7455170062666667,-9.024307236666669,-0.9253997967
1518198258397.0,2.7378998195999995,-9.10801697,-0.9157989667000002
1518198258598.0,2.8946869262666666,-9.093576036666665,-0.9114349533666668
1518198258800.0,2.8147064596,-9.088101169999998,-0.9492828540333335
1518198259001.0,2.8003448862666662,-9.067709336666665,-0.9677704007000001
1518198259202.0,2.9046051395999997,-9.040573103333331,-0.9579315340333334
1518198259404.0,2.9197601729333327,-9.108651703333333,-0.9865753320333335
1518198259607.0,3.120108076266666,-9.073977636666665,-0.8555755720333332
1518198259807.0,3.2032623729333327,-9.001138286666665,-1.0181549170333335
1518198260008.0,3.151211586266666,-9.002249136666666,-1.0515594596666669
1518198260211.0,3.196438636266666,-8.977731336666665,-1.0994842656666668
1518198260411.0,3.224288976266666,-8.986618036666666,-1.1889068736666668
1518198260614.0,3.191043126266666,-9.028353869999998,-1.0288665903333334
1518198260814.0,3.1609710995999993,-9.068582136666667,-1.0658416880000001
1518198261017.0,3.172872952933333,-9.061441036666666,-1.0259307979999999
1518198261217.0,3.118283102933333,-9.064852903333332,-1.0101410046666666
1518198261419.0,3.2197662576,-9.075961303333331,-1.0540985236666665
1518198261621.0,3.3235504376666665,-9.15959167,-1.0218841693333334
1518198261821.0,3.2783233843333335,-9.01407167,-1.107418836
1518198262024.0,3.2100860809999996,-9.003598036666666,-1.096786511
1518198262225.0,3.1571624909999993,-9.00780337,-1.146298231
1518198262427.0,3.272451799,-8.922030636666664,-1.1001190310000002
1518198262628.0,3.242459122333334,-9.01137389333333,-0.9626129209999998
1518198262828.0,3.2449188390000003,-9.061758416666663,-0.8531951976666666
1518198263030.0,3.2298431523333337,-9.098257449999997,-0.90207215
1518198263231.0,3.2230194223333335,-9.116268916666664,-0.8658905066666667
1518198263432.0,3.1970733756666667,-9.111190816666664,-0.8648590133333333
1518198263634.0,3.2943512079999997,-9.074453766666666,-0.8512908986666667
1518198263835.0,3.216751111333334,-9.221798733333332,-0.842166142
1518198264038.0,3.3202179100000007,-9.175143466666665,-0.8776336713333333
1518198264238.0,3.241665656666667,-9.1680817,-0.8844574013333333
1518198264441.0,3.2469024733333334,-9.144595366666668,-0.8262970013333333
1518198264642.0,3.2294464233333335,-9.148800700000002,-0.8043975863333334
1518198264842.0,3.206436166666667,-9.161019933333332,-0.7782135039999999
1518198265045.0,3.1938202000000007,-9.173080466666669,-0.7394134566666667
1518198265247.0,3.1755706900000003,-9.182363933333335,-0.7102935823333334
1518198265447.0,3.157717903333334,-9.191091966666667,-0.6757782023333334
1518198265650.0,3.15795594,-9.196566816666667,-0.6537200956666669
1518198265851.0,3.138595586666667,-9.211801183333336,-0.6426116973333333
1518198266052.0,3.116854866666667,-9.215689133333335,-0.6231719983333333
1518198266254.0,3.1272491533333335,-9.218386866666666,-0.6075408936666666
1518198266455.0,3.1199493466666675,-9.222354166666667,-0.6034942623333334
1518198266657.0,3.1078094533333336,-9.222592216666667,-0.6023040773333334
1518198266858.0,3.1002716133333337,-9.224020450000001,-0.599209595
1518198267060.0,3.085433966666667,-9.231637616666667,-0.5830230716666667
1518198267260.0,3.096145636666667,-9.234176666666668,-0.5789764416666667
1518198267462.0,3.083212286666667,-9.227908333333334,-0.570248415
1518198267664.0,3.043301396666667,-9.236795066666666,-0.555252077
1518198267865.0,3.0034698533333337,-9.2469513,-0.5489837670000001
1518198268066.0,2.9623687766666666,-9.258297733333333,-0.5434295686666667
1518198268268.0,2.920315556666667,-9.267422466666666,-0.5363678003333334
1518198268469.0,2.8732635533333335,-9.2802765,-0.5216888443333334
1518198268670.0,2.8300994900000003,-9.295669566666668,-0.5090728776666666
1518198268871.0,2.78153992,-9.311300666666666,-0.49486999633333334
1518198269074.0,2.726632696666667,-9.322250366666664,-0.4897918713333333
1518198269275.0,2.682278446666667,-9.345260616666666,-0.475668337
1518198269477.0,2.595156866666667,-9.155624376666667,-0.319357307
1518198269678.0,2.3232391400000005,-9.001217639999998,-0.3419708316666666
1518198269878.0,2.0785369933333335,-9.535690273333332,-0.15415955166666662
1518198270081.0,2.058145146666667,-9.072311373333331,-0.20763855499999995
1518198270282.0,1.9399200500000005,-9.209738139999997,-0.37148743166666665
1518198270484.0,1.7824981733333338,-9.267739839999999,-0.8954864416666667
1518198270685.0,1.7043426533333335,-8.773971519999998,-0.9152435233333334
1518198270886.0,2.35085143,-9.573220786666665,-0.8090789723333334
1518198271088.0,2.1716888333333335,-9.105795253333334,-0.6288848796666666
1518198271290.0,2.036801136666667,-8.756118729999999,-0.578024284
1518198271491.0,1.62872619,-9.434365829999999,-0.3658538773333333
1518198271692.0,1.4939178400000002,-9.020816023333333,-0.3427642786666666
1518198271893.0,1.5350189066666666,-9.186093123333332,-0.4986785819999999
1518198272096.0,1.4450408776666666,-9.293606556666667,-0.5210540709999999
1518198272296.0,1.2863494743333332,-8.742153923333333,-0.4147308289999999
1518198272498.0,1.6220611409999997,-9.40445249,-0.481936639
1518198272698.0,1.5629485910000003,-9.269644139999999,-0.48153991066666674
1518198272900.0,1.5234344276666663,-8.819436620000001,-0.3360198896666666
1518198273102.0,2.124398754333333,-9.719058186666668,-0.31372374733333336
1518198273304.0,2.090280101,-9.479434163333334,-0.2314422506666667
1518198273504.0,2.148519851,-9.160385105,-0.18288268066666663
1518198273705.0,2.2782500776666668,-10.13947143833333,-0.12027891966666673
1518198273907.0,2.1760528109999995,-9.777178961666667,-0.23199766966666677
1518198274109.0,2.198745684333333,-9.937615995,-0.34379576633333336
1518198274310.0,2.2480987109999995,-9.914209028333334,-0.42806090133333335
1518198274512.0,2.024423167666666,-9.482012968333335,-0.2001006973333334
1518198274714.0,2.400283774333333,-10.004107701666667,-0.22065123400000006
1518198274916.0,2.304354820999999,-9.744964635000002,-0.29912413533333343
1518198275117.0,2.2781707376666662,-9.24421390166667,-0.13281554133333345
1518198275317.0,2.354104577666666,-10.173907518333337,-0.03807677233333345
1518198275519.0,2.3183196659999994,-9.97316289166667,-0.22406309566666655
1518198275721.0,2.6284026759999994,-9.797253467000003,-0.2112090923333333
1518198275923.0,2.5735747959999995,-9.909765700333335,-0.2811920056666666
1518198276124.0,2.4868499416666667,-9.902386550333334,-0.18565977900000002
1518198276325.0,2.597061125,-9.918969783666668,-0.0787811190000001
1518198276525.0,2.5915069249999996,-9.803045717000002,0.5527313209999999
1518198276729.0,2.5996001859999995,-9.741235417000002,0.7201507576666667
1518198276930.0,1.9372222693333332,-9.889770583666667,0.4244293143333333
1518198277130.0,1.9150054726666663,-10.086468577000002,0.051504501000000036
1518198277331.0,2.0201385293333334,-10.330139233666667,0.006753524666666701
1518198277534.0,2.466140729333334,-10.027435367,-0.5104217753333333
1518198277735.0,2.4309905826666673,-10.008154363666668,-0.7623443839999999
1518198277937.0,2.6521270493333344,-10.302447563666666,-0.7828155840000001
1518198278138.0,2.713143895000001,-10.079803497,-0.7505218823333333
1518198278339.0,2.879373138333334,-10.177954130333335,-0.7874969789999999
1518198278541.0,2.4332122533333327,-10.500137397,-0.6898224189999999
1518198278743.0,2.281503269999999,-10.21528632366667,-0.6693512273333331
1518198278944.0,2.434085056666666,-10.971609577,-0.9073089939999999
1518198279144.0,1.7728179946666667,-9.981930643666669,-0.8371673929999999
1518198279346.0,1.7103729280000002,-9.731594950333335,-0.7774994263333332
1518198279548.0,2.4652679613333333,-11.03988660866667,-0.9241302863333333
1518198279748.0,2.3360138113333337,-9.695016582000001,-1.0239471830000002
1518198279951.0,2.5156524813333334,-10.015414525333334,-1.0329925996666667
1518198280153.0,2.593252578,-9.871798792,-0.9705475329999997
1518198280354.0,2.5912689346666666,-9.885684292,-0.9146088129999999
1518198280556.0,2.8586639613333333,-10.303360085333333,-1.161850023
1518198280757.0,2.5126373379999993,-9.769046118666664,-1.1670074939999995
1518198280958.0,2.634274298,-10.017953585333332,-1.0890900123333331
1518198281160.0,2.7083831846666664,-10.497836385333333,-1.25976262
1518198281362.0,2.676803594666666,-9.547909618666665,-1.3726715550000002
1518198281563.0,2.7835235663333333,-9.939401318666665,-1.3418854216666667
1518198281763.0,2.726235969666666,-10.268765329999999,-1.3306183316666667
1518198281965.0,3.032192999666666,-9.613131780000002,-1.451144451666667
1518198282167.0,3.1418487606666665,-10.08420723,-1.492880291666667
1518198282367.0,3.154623417333333,-9.932656930000002,-1.4380524093333333
1518198282568.0,3.3143463206666666,-9.990658630000002,-1.5508820006666668
1518198282771.0,3.388296513,-10.545523116666669,-1.707986494
1518198282972.0,3.411227423,-9.593850750000001,-1.5289825806666668
1518198283173.0,3.6195892396666665,-9.860531656666668,-1.3425201706666665
1518198283374.0,3.650613409666667,-9.96217349,-1.357437163
1518198283577.0,3.6210967996666668,-9.57869569,-1.0585418896666667
1518198283778.0,3.7992279030000002,-10.010971083333333,-0.837484759666667
1518198283979.0,3.5357208363333337,-9.551797516666666,-0.6576873910000001
1518198284181.0,3.569363413,-9.667800949999998,-0.6705413946666666
1518198284382.0,3.5639679096666668,-10.120785583333333,-0.7287017960000001
1518198284583.0,3.6764007713333338,-9.13257448333333,-0.7552826069999999
1518198284785.0,3.888253798,-9.554138189999998,-0.7617889546666666
1518198284987.0,3.7755829013333333,-9.24968872333333,-0.6625274779999999
1518198285189.0,3.8490570233333337,-9.336254889999998,-0.7526641959999999
1518198285389.0,3.937844866666667,-9.819708256666665,-0.8879486193333332
1518198285592.0,3.1391509999999996,-8.831259123333332,-0.7882110693333333
1518198285792.0,3.179776,-9.192123383333332,-0.7480621426666667
1518198285994.0,3.1411346433333334,-9.224813816666664,-0.6232513446666667
1518198286196.0,3.087734986666667,-9.197439549999997,-0.5694549546666667
1518198286397.0,3.0901947033333332,-9.198074316666665,-0.5370025633333335
1518198286598.0,3.106143189999999,-9.201962250000001,-0.52137146
1518198286799.0,3.1096344033333323,-9.205136083333333,-0.5047088623333335
1518198287001.0,3.1384368966666663,-9.199026483333332,-0.5055023193333334
1518198287203.0,3.1491485666666663,-9.206723016666665,-0.50954895
1518198287403.0,3.1570037899999996,-9.203311149999998,-0.503915405
1518198287606.0,3.1763641433333336,-9.200613383333332,-0.49844055166666673
1518198287806.0,3.2060394333333337,-9.202835049999997,-0.48749084500000006
1518198288007.0,3.2106414833333337,-9.213626066666665,-0.4717010506666666
1518198288210.0,3.2052459766666668,-9.2081512,-0.46463928399999993
1518198288412.0,3.2040557900000004,-9.183395366666664,-0.44512024099999997
1518198288612.0,3.214608766666667,-9.179745466666665,-0.43194885399999994
1518198288813.0,3.2110382133333335,-9.181887799999997,-0.4287750273333333
1518198289016.0,3.2155609200000006,-9.181570433333333,-0.42084045733333325
1518198289217.0,3.2201629700000005,-9.179348766666667,-0.4222686806666667
1518198289418.0,3.2166717600000005,-9.181967183333333,-0.42972717666666665
1518198289619.0,3.200485236666667,-9.197518950000001,-0.42226868
1518198289820.0,3.20540467,-9.190457183333336,-0.42488708799999997
1518198290022.0,3.2066742033333333,-9.186807283333335,-0.4299652133333333
1518198290224.0,3.1977081400000005,-9.18442691666667,-0.43448791800000003
1518198290426.0,3.201834116666667,-9.160781883333334,-0.46749573
1518198290626.0,3.2326995933333333,-9.146261616666667,-0.4637664823333334
1518198290827.0,3.2075470100000003,-9.138961816666665,-0.4786041296666667
1518198291030.0,3.222464,-9.12237855,-0.5214508096666667
1518198291230.0,3.2411895866666667,-9.102066050000001,-0.5089141886666666
1518198291433.0,3.1279632666666664,-9.307254050000001,-0.7250518853333333
1518198291635.0,3.19477235,-8.969400049999999,-0.574295042
1518198291835.0,3.454708876666666,-9.196408116666666,-0.4706695553333333
1518198292037.0,3.3607635649999996,-9.63257145,-0.5035980233333333
1518198292239.0,3.2683258193333327,-9.279641763333334,-0.26706847999999994
1518198292440.0,3.2157989626666663,-9.276150530000002,-0.2604034408333333
1518198292642.0,3.3959930493333323,-9.679782130000001,-0.31253356749999994
1518198292842.0,3.2175445593333327,-9.646060196666669,-0.4025909408333334
1518198293045.0,2.899288942666666,-9.387075806666669,-0.5472381588333334
1518198293246.0,3.284274292666666,-9.37731629,-0.7340972905
1518198293447.0,3.386074829333333,-9.87108459,-0.5148651138333333
1518198293649.0,3.462564085999999,-9.965109256666668,-0.6207916271666668
1518198293849.0,3.612210082666666,-9.594644183333335,-0.4079071071666667
1518198294051.0,3.500729370766666,-9.784042383333334,-0.5809600815
1518198294252.0,3.5019195574333333,-9.897903483333335,-0.8840606681666668
1518198294454.0,3.4444732707666668,-9.619320707000002,-0.6203155535000002
1518198294656.0,3.5908660941,-9.922738673666668,-0.4389312758333335
1518198294856.0,3.571188360766666,-10.368026773666667,-0.36029968250000005
1518198295058.0,3.4332061807666667,-10.100393710333334,-0.2245391825
1518198295259.0,3.2039764441,-9.838076807000002,-0.17193298050000003
1518198295462.0,3.3310882607666663,-9.887667857000002,-0.25897521583333327
1518198295663.0,3.4720855774333335,-10.364535523666666,-0.021731562499999912
1518198295865.0,3.343704229766667,-10.123403926999996,-0.21747740783333336
1518198296066.0,3.432015996433333,-9.822286979666664,-0.12781676450000012
1518198296268.0,3.5673797731,-10.007638529666664,-0.29967955783333333
1518198296469.0,3.680288699766667,-10.318753062999996,-0.35514220449999995
1518198296670.0,3.4985076964333337,-10.010574362999998,-0.27809752783333336
1518198296871.0,3.487478639766667,-9.719613678999997,-0.16082457783333332
1518198297073.0,3.4541534464333337,-9.968521145666665,0.01302185883333322
1518198297275.0,2.9416595331,-10.498471078999996,0.43990175583333335
1518198297476.0,2.7297271597666666,-9.961300658999997,0.47790835583333335
1518198297677.0,2.4726470831,-10.087142945666665,0.3617462391666667
1518198297878.0,2.734408583099999,-10.194894412333332,0.2548675785
1518198298080.0,2.6866424714333337,-9.586788945666665,0.07800601516666666
1518198298282.0,2.6910064854333338,-9.587899785666664,-0.06283261149999998
1518198298484.0,2.698226945433333,-9.887033085666664,0.03841250466666675
1518198298684.0,2.4769317821,-9.848709085666664,0.17980655133333345
1518198298885.0,2.6772003387666667,-9.483084085666665,0.35960391466666675
1518198299086.0,2.514462288766667,-9.563937358999997,0.6433441513333333
1518198299287.0,2.3691009554333338,-9.751193209,0.6719086080000001
1518198299489.0,1.7363189754333332,-9.820223975666666,0.5658234046666667
1518198299692.0,1.4329803521000002,-9.327407815666666,0.5518585546666667
1518198299892.0,1.2896820120999999,-9.607894875666666,0.12950137800000008
1518198300094.0,1.2204925573333334,-9.909805275666667,0.09689029133333343
1518198300296.0,1.013162234,-9.345816009,0.14989322466666682
1518198300496.0,1.0379974373333332,-9.476498385333333,-0.2298553086666667
1518198300699.0,1.740603654,-9.574410985333332,-0.23287044533333326
1518198300899.0,1.7680572673333335,-9.155068952,-0.39521175533333325
1518198301100.0,1.6852203540000004,-9.012326032,-0.5028838753333333
1518198301304.0,1.6333282673333334,-9.364303568666667,-0.43766170733333337
1518198301504.0,1.8227264740000002,-10.000656135333335,-0.3495879773333332
1518198301705.0,1.2483429240000004,-9.476498435333333,-1.2373077006666664
1518198301907.0,1.133132961666667,-9.285433981999999,-1.1036895406666667
1518198302109.0,1.0960785183333337,-9.349386619333332,-1.4736785606666665
1518198302311.0,1.3327667516666668,-9.571792635999998,-1.5308868173333332
1518198302512.0,0.9052521183333335,-9.231002812666665,-1.614279150666667
1518198302713.0,0.885336345,-9.415640262666663,-1.652285740666667
1518198302915.0,1.195736735,-9.811495979999997,-1.7572601056666666
1518198303116.0,1.3833099783333334,-9.912423713333332,-1.7275848123333335
1518198303316.0,1.5023285450000001,-9.571951313333335,-2.733926379
1518198303519.0,1.607302911666667,-9.636221333333333,-2.6631500189999997
1518198303721.0,1.848831238333333,-9.788644426666668,-2.8402496356666664
1518198303922.0,2.0351349049999996,-9.807052626666668,-2.705282595
1518198304122.0,2.203744521666667,-9.95415956,-2.5715057483333337
1518198304323.0,2.3256988633333338,-9.972726456666667,-2.6283172703333335
1518198304526.0,2.4044891466666667,-9.826889056666667,-2.738925179333333
1518198304727.0,2.76154481,-9.843551656666667,-2.705441296
1518198304928.0,2.380764786666666,-10.368502823333333,-2.9982269393333336
1518198305129.0,2.574923736666667,-10.38103944,-3.1110565303333337
1518198305331.0,2.3872711566666664,-10.269479406666669,-2.936892714866667
1518198305532.0,2.9024628033333335,-9.71604314,-3.0087005768666675
1518198305735.0,3.1002716366666667,-10.140066566666668,-2.8639740078666676
1518198305936.0,2.9818878486000004,-10.23139348,-2.664419564533334
1518198306138.0,3.0758331619333337,-9.723739680000001,-2.4417755232000005
1518198306338.0,3.2987945886000003,-10.18624578,-2.1830291878666674
1518198306541.0,3.3156158786,-10.361044346666667,-2.0789276245333337
1518198306742.0,2.4730438419333334,-9.952969413333333,-2.2616607792000005
1518198306942.0,2.4666168386,-9.934481846666666,-2.175173962533334
1518198307145.0,2.7032257252666665,-10.343429596666667,-2.194693005866667
1518198307346.0,2.9887115585999995,-10.255593896666666,-2.2977630742000006
1518198307546.0,2.6939422586,-9.56869813,-2.2735626352000007
1518198307749.0,3.1369293252666663,-9.605038463333331,-1.6121368578666668
1518198307951.0,3.372744755266666,-10.042947413333334,-1.527157609866667
1518198308152.0,3.3278350885999997,-10.286856089999999,-1.2276275728000003
1518198308354.0,2.9750640885999995,-9.878384389999999,-0.9887176561333332
1518198308554.0,3.295858755266666,-9.931625346666667,-0.8178070127999999
1518198308757.0,3.474862661933333,-10.070718363333333,-0.8554168761333333
1518198308957.0,3.2150848285999998,-9.96860043,-0.8521637024666667
1518198309159.0,3.059091175266667,-9.63193663,-1.0136322098
1518198309361.0,3.4426483086,-9.460708596666667,-0.4461517414666666
1518198309562.0,3.671163931933333,-9.731039396666667,-0.3329254227999999
1518198309762.0,3.6190337986,-9.79189755,-0.19018249613333335
1518198309965.0,2.9159515386000003,-9.435555983333332,-0.32546691946666667
1518198310166.0,2.8996063286,-9.45951838333333,-0.24977111746666666
1518198310367.0,2.8767547686,-9.786740066666663,-0.2827789298
1518198310568.0,2.8482696586,-9.635348466666665,-0.2812713614666667
1518198310770.0,2.531283575266667,-9.250283766666664,-0.4045745848
1518198310971.0,2.9084136952666673,-9.121029633333332,-0.19708557213333328
1518198311174.0,3.1965179452666668,-9.288449066666665,-0.2275543221333333
1518198311374.0,3.141134645266667,-9.2246551,-0.23525085526666661
1518198311576.0,3.1589080852666673,-9.217037900000001,-0.26508483993333326
1518198311778.0,3.1942169252666672,-9.1949798,-0.28301696893333333
1518198311979.0,3.3045867966666673,-9.1883941,-0.2712738042666666
1518198312181.0,3.3965484666666677,-9.202041533333333,-0.28722229059999993
1518198312381.0,3.402023320000001,-9.1839507,-0.2996795659333333
1518198312584.0,3.3694122366666677,-9.2045806,-0.4042572025999999
1518198312785.0,3.371951296666668,-9.123251233333331,-0.4741607679333333
1518198312987.0,3.371713260000001,-9.07366018,-0.5206573479333333
1518198313188.0,3.357986453333334,-9.124441446666664,-0.5445404046000001
1518198313388.0,3.4197967533333338,-9.127377246666665,-0.5125640862666667
1518198313591.0,3.4348724333333336,-9.13063041333333,-0.4647979719333333
1518198313792.0,3.56730041,-9.088497833333331,-0.48407897793333327
1518198313994.0,3.5884857133333337,-9.071041766666665,-0.6188873292666666
1518198314195.0,3.529373163333333,-9.041207799999999,-0.7071990996666667
1518198314396.0,3.5548431299999996,-8.993917766666666,-0.7554412863333334
1518198314598.0,3.639346306666667,-8.960830633333332,-0.7585357683333334
1518198314798.0,3.6390289233333335,-8.962179500000001,-0.8781890883333332
1518198315000.0,3.6660858100000002,-8.8673614,-0.9496002203333334
1518198315202.0,3.767092896666667,-8.8791839,-1.1051177996666668
1518198315402.0,3.732418823333333,-8.825070133333332,-1.0613189713333335
1518198315605.0,3.7180572499999998,-8.7659576,-1.033547975
1518198315806.0,3.782962033333333,-8.737075766666667,-0.9813385016666669
1518198316007.0,3.713534543333333,-8.7170013,-0.9784820563333335
1518198316209.0,3.78153381,-8.634481766666665,-1.0007781983333335
1518198316410.0,3.824063103333333,-8.649160716666668,-1.0709991473333336
1518198316613.0,3.96045837,-8.643130450000001,-0.9903839133333336
1518198316813.0,4.090109253333333,-8.597189300000002,-1.0264862066666667
1518198317015.0,4.242294313333333,-8.550216633333333,-1.0392608650000001
1518198317217.0,4.250863646666667,-8.604885833333334,-1.0066497806666668
1518198317418.0,4.352346793333333,-8.514907813333334,-1.0600494396666666
1518198317620.0,4.439785756666667,-8.559579446666667,-1.1437591563333331
1518198317820.0,4.539523306666667,-8.529586779999999,-1.1188446056666665
1518198318022.0,4.537539666666667,-8.606234713333333,-1.0121246369999999
1518198318224.0,4.670761103333334,-8.610678080000001,-1.0241058386666666
1518198318425.0,4.736221306666667,-8.587112413333335,-1.0068084753333333
1518198318626.0,4.751852410000001,-8.464602646666668,-0.8603363076666666
1518198318827.0,4.849209586666667,-8.477694693333335,-0.7731353791999999
1518198319029.0,4.963705433333334,-8.478805533333333,-0.7546478325333332
1518198319231.0,5.171115113333333,-8.396047966666666,-0.6935516411999999
1518198319433.0,5.18143006,-8.4233429,-0.7567108211999999
1518198319634.0,5.12311097,-8.325906386666666,-0.8557342612
1518198319834.0,5.1810333266666655,-8.287265033333332,-0.8431182942
1518198320037.0,5.148580933333332,-8.371212799999999,-0.7074371402
1518198320238.0,5.295846559999999,-8.389859033333332,-0.6515777635333333
1518198320438.0,5.33869324,-8.392001366666667,-0.5679473935333333
1518198320641.0,5.180081179999999,-8.441036999999998,-0.46892395486666666
1518198320842.0,5.260061646666666,-8.3304291,-0.31269226586666665
1518198321043.0,5.253872683333333,-8.397872933333334,-0.2907928525333332
1518198321244.0,5.241891473333334,-8.386367799999999,-0.07687683586666663
1518198321446.0,5.413833613333335,-8.384146133333335,-0.12773743153333333
1518198321648.0,5.560861203333334,-8.363357553333334,-0.15368347653333328
1518198321849.0,5.600930786666667,-8.463253786666666,-0.16685486319999993
1518198322051.0,5.7979461699999995,-8.547280886666664,-0.21652527186666662
1518198322251.0,5.8410308833333335,-8.495468143333333,-0.27317810519999997
1518198322454.0,5.871023563333333,-8.500625626666668,-0.2235076935333333
1518198322655.0,5.802310183333333,-8.516574126666667,-0.3142791768666666
1518198322856.0,5.7274871833333325,-8.54759831,-0.2777801548666666
1518198323058.0,5.677975469999999,-8.549423263333333,-0.2571502720333333
1518198323260.0,5.7097931033333325,-8.469442796666666,-0.3161834753666666
1518198323461.0,5.67551577,-8.528555349999998,-0.2905548120333332
1518198323663.0,5.667025786666667,-8.444290216666666,-0.22953796536666662
1518198323863.0,5.64488833,-8.431515549999997,-0.26690979136666665
1518198324065.0,5.7297088800000004,-8.319955516666665,-0.37005920336666653
1518198324267.0,5.663693253333334,-8.2926606,-0.3610931383666665
1518198324467.0,5.663613906666667,-8.287820516666667,-0.3652984606999999
1518198324669.0,5.781283576666667,-8.35193185,-0.3975921616999999
1518198324870.0,5.757955943333333,-8.393429653333333,-0.41036682016666653
1518198325073.0,5.726376356666665,-8.3981904,-0.36482238583333326
1518198325274.0,5.590457156666666,-8.3996186,-0.4026702861666665
1518198325475.0,5.591329959999998,-8.337966966666665,-0.37315368416666655
1518198325676.0,5.699874883333333,-8.40065008,-0.32705382916666653
1518198325877.0,5.590060436666665,-8.447464046666667,-0.3250701868333333
1518198326080.0,5.681625379999998,-8.344870046666665,-0.3309417688333332
1518198326281.0,5.672341933333333,-8.315829513333332,-0.3049163771666666
1518198326481.0,5.669882220000001,-8.33106388,-0.3353057811666666
1518198326683.0,5.817068503333334,-8.282583646666668,-0.43028258916666656
1518198326884.0,5.80905459,-8.357009913333332,-0.4690826381666666
1518198327087.0,5.8593597666666675,-8.350979646666666,-0.4107635464333333
1518198327288.0,5.842697176666667,-8.319638113333333,-0.4640838587666666
1518198327490.0,5.777316310000002,-8.34201358,-0.45686339976666657
1518198327691.0,5.718759186666667,-8.38644716,-0.4609893764333333
1518198327891.0,5.692495753333334,-8.281552159999999,-0.49375915243333335
1518198328094.0,5.639334126666667,-8.184433026666666,-0.44162902709999996
1518198328296.0,5.600058003333334,-8.286947669999998,-0.3577606183
1518198328497.0,5.597836323333334,-8.240609769999999,-0.3292755107666667
1518198328698.0,5.601803603333335,-8.19776307,-0.31205749410000005
1518198328899.0,5.617355360000001,-8.182528669999998,-0.30507507210000007
1518198329100.0,5.588394173333334,-8.19514465,-0.3067413319333334
1518198329303.0,5.621163940000001,-8.189352416666667,-0.27444763093333335
1518198329505.0,5.6283843933333335,-8.18506775,-0.23969421359999996
1518198329706.0,5.6196563600000005,-8.193161016666666,-0.21224060126666666
1518198329906.0,5.617117303333333,-8.20260315,-0.19422912676666665
1518198330109.0,5.60711975,-8.207760616666667,-0.1931976326333333
1518198330309.0,5.611959833333334,-8.197525033333335,-0.1841522223
1518198330512.0,5.606088246666667,-8.205538950000001,-0.1828033453
1518198330713.0,5.603787226666666,-8.206411750000001,-0.17828064030000002
1518198330915.0,5.5961700400000005,-8.211807266666666,-0.1737579349666667
1518198331116.0,5.599343860000001,-8.215298466666667,-0.1729644779666667
1518198331316.0,5.5980743266666675,-8.218869033333334,-0.16915588430000003
1518198331517.0,5.598788443333334,-8.219900533333334,-0.16352233943333336
1518198331719.0,5.600613396666668,-8.217678833333334,-0.1607452397666667
1518198331920.0,5.602914423333333,-8.2193451,-0.1580474857666667
1518198332121.0,5.6042632999999995,-8.221646116666665,-0.1534454351
1518198332323.0,5.602597046666666,-8.225375383333333,-0.14924011276666665
1518198332526.0,5.60473938,-8.221487449999998,-0.1473358161
1518198332727.0,5.621798703333333,-8.23069155,-0.1456695561
1518198332929.0,5.609500116666666,-8.226803616666665,-0.14178161643333334
1518198333130.0,5.614816283333334,-8.209982329999999,-0.1945465081666667
1518198333330.0,5.5689544600000005,-8.272744763333332,-0.1197235091666667
1518198333533.0,5.375430296,-7.93623965,-0.05783386250000001
1518198333734.0,6.151034529333334,-8.645193516666666,-0.3487152158333333
1518198333936.0,6.089303576000001,-8.465634176666667,-0.29555359316666663
1518198334136.0,5.729470812666668,-8.227755756666665,-0.1665374785
1518198334337.0,5.4527923460000025,-8.939566056666667,0.08681335270000004
1518198334540.0,5.185238636000001,-8.622421280000001,-0.2177947898333333
1518198334740.0,4.851431269333334,-8.592666646666668,-0.3473663231666666
1518198334943.0,4.564041132666667,-9.169271880000002,-0.09496763383333326
1518198335144.0,4.308786006,-8.66931459,-0.25207212449999994
1518198335345.0,3.943240352666667,-8.86775819,-0.5745330554999999
1518198335546.0,3.714089962666667,-9.09865419,-0.6939483394999999
1518198335749.0,3.2387298626666676,-8.69042054,-0.7705962884999998
1518198335950.0,3.0904327426666676,-8.922982806666665,-0.995620701
1518198336152.0,2.9246002226666676,-8.930599973333333,-1.1962859831333332
1518198336352.0,2.5319183426666667,-8.477694686666664,-1.1079742151333332
1518198336553.0,2.594998176,-8.828164653333332,-1.3790191264666667
1518198336755.0,2.3580719059999997,-8.526492285666667,-1.4993072114666666
1518198336956.0,2.1010711726666664,-8.00511166233333,-1.4267852401333332
1518198337158.0,2.7707489060000006,-8.451193195666665,-1.3354583348
1518198337359.0,2.5836517373333336,-8.190621904999999,-1.3410125337999999
1518198337560.0,2.400759886666667,-7.787069661666666,-1.2334197606666666
1518198337763.0,2.8393829200000003,-8.682565261666667,-1.171926842
1518198337963.0,2.69862364,-8.406045474333332,-1.4084563766666667
1518198338165.0,2.45725401,-8.228311097666664,-1.3963958296666665
1518198338366.0,2.30530698,-9.085006597666666,-1.2959441703333332
1518198338567.0,2.1079742133333337,-8.704940687666666,-1.383065753
1518198338770.0,1.8573211366666673,-8.596554464333332,-1.4082183416666665
1518198338972.0,1.6437225066666672,-9.212197764333332,-1.1384429479999998
1518198339173.0,1.4852691300000005,-8.805868417666666,-1.1074187779999998
1518198339373.0,1.5913543366666671,-8.857363784333332,-1.4764556446666663
1518198339574.0,1.5417632706666673,-9.293051031,-1.6568877713333332
1518198339776.0,0.5928680156666668,-8.038198731000001,-1.1881927046666667
1518198339977.0,1.4240142690000002,-9.238818271000003,-1.6088042646666665
1518198340180.0,1.734494005666667,-9.216998203000003,-1.7503570013333334
1518198340380.0,1.7490936156666665,-8.309600749666668,-1.863107248
1518198340581.0,1.6779205256666665,-9.048229893,-1.2005706479999996
1518198340785.0,1.7594879090000002,-8.649993813000002,-1.1712920846666661
1518198340986.0,1.8562103210000003,-8.204864413000001,-1.5862701179999996
1518198341187.0,2.0159332210000005,-8.793292136333337,-1.7524200179999996
1518198341388.0,2.238894647666667,-8.078466686333334,-1.535409528
1518198341589.0,2.7727325510000003,-8.163604619666666,-1.633718848
1518198341792.0,3.0599639886666674,-8.541686896333333,-1.6587127446666667
1518198341992.0,2.9304717986666677,-7.867803839666666,-1.2544463879999999
1518198342193.0,3.6308563053333343,-8.636505039666666,-0.8446258313333334
1518198342395.0,3.8807159253333343,-8.760363683,-0.8899322280000003
1518198342596.0,3.5875335586666672,-8.331896882999999,-0.6723663213333335
1518198342798.0,3.521041862000001,-8.801226717333332,-1.0102203346666667
1518198343001.0,3.474624625333334,-8.824078273999998,-1.0133941613333335
1518198343202.0,3.324185192,-9.187719640666664,-1.252700804666667
1518198343402.0,3.4989044273333336,-9.391479404666665,-1.3021331770000004
1518198343605.0,3.6431549113333337,-9.775115881333333,-1.4094879130000002
1518198343805.0,3.1550201546666665,-8.904693548000001,-1.5143829330000003
1518198344008.0,3.2126251379999995,-9.217633002000001,-1.3091156063333338
1518198344209.0,3.4128936913333328,-9.419567828666668,-1.3379180960000003
1518198344411.0,3.5278656213333326,-8.577075195333332,-1.4732818660000002
1518198344610.0,3.6733062879999996,-8.923419188666665,-1.404092412666667
1518198344812.0,3.8354095579999994,-9.231518545333332,-1.3362518360000004
1518198345014.0,4.170327771333333,-8.642059312,-1.596981819666667
1518198345216.0,4.284109514666666,-9.196765111999998,-1.3147491530000004
1518198345417.0,4.113278214666666,-8.892950418666667,-1.054415899666667
1518198345618.0,4.352505511333332,-8.602545152,-1.2254058796666671
1518198345819.0,4.660763566333332,-8.806146235333333,-1.718460079666667
1518198346022.0,4.048373399666666,-7.374313318666668,-1.3067352396666665
1518198346224.0,4.225949086333333,-7.30393368,-1.3376007163333334
1518198346425.0,4.694088719666666,-7.1542083366666676,-1.5357269363333337
1518198346625.0,5.148263519666665,-6.334805270000001,-1.966415403
1518198346827.0,5.371939056333332,-6.37963559,-1.5638946596666663
1518198347029.0,5.398202484333333,-5.889913923333334,-1.054574593
1518198347229.0,5.314492766999999,-5.438992303333333,-0.40330505966666647
1518198347430.0,5.278549163,-5.591415399999999,0.0318267836666668
1518198347632.0,4.7882720513666674,-4.919277943333333,0.5904998836666666
1518198347834.0,4.795175127366667,-4.596182239999999,1.0204742369999997
1518198348036.0,4.893246419366667,-4.663308703333333,1.1666290203333334
1518198348236.0,4.202780126033334,-3.5134307599999994,1.2861236636666666
1518198348439.0,4.1716766107,-3.496450779999998,1.5842254836666667
1518198348639.0,4.209603857366666,-3.222628763333332,1.989047277
1518198348842.0,4.318466161033333,-2.7017242233333327,2.7794098436666665
1518198349042.0,4.4278045397,-2.8428802333333323,3.047915700333333
1518198349245.0,3.7248015987,-1.6741180333333325,3.5463654169999996
1518198349445.0,3.566427578700001,-1.3695098799999998,3.944760207
1518198349646.0,3.4232879347000003,-1.0273712066666665,4.3116547296666665
1518198349848.0,3.2916534140333336,-0.6425445333333333,4.725839293
1518198350049.0,3.1933440867000003,-0.24502256000000044,5.1259796663333335
1518198350250.0,3.0538543427000002,0.14067691333333315,5.510885663
1518198350452.0,2.9099212320333336,0.5168548866666665,5.913247716333333
1518198350653.0,2.7813018547,0.8426483433333334,6.299899319666666
1518198350855.0,2.671646094033333,1.4151275833333334,6.626406879666666
1518198351057.0,2.383462500033333,1.7982086233333334,6.986636363333333
1518198351258.0,2.240164156033333,2.2903106633333334,7.0906585699999995
1518198351459.0,2.1704986287,2.4627288766666666,7.493099966666667
1518198351661.0,1.9940337846999991,2.63213195,8.154129
1518198351862.0,1.6766509740333326,2.64982604,8.841976900000002
1518198352063.0,1.337368763366666,2.6007903966666666,9.165707360000003
1518198352265.0,1.0328399526999994,2.6331634433333337,9.57941584666667
1518198352466.0,0.6473785420333327,2.6514129533333333,10.004232733333339
1518198352668.0,0.3511810313666668,2.6165801933333337,10.440475400000004
