Time,AccelX,AccelY,AccelZ
1518196688317.0,1.9015960893333332,1.6033356126666667,7.912521149999999
1518196688519.0,2.332443266,0.8696258793333331,8.177932516666667
1518196688720.0,2.2236603093333334,0.8356659126666662,7.773190099999999
1518196688922.0,2.539297519333333,0.15416567933333358,7.477627369333333
1518196689124.0,2.5058929786666666,0.14250185933333337,7.167861757999999
1518196689325.0,2.790585355333333,-0.3003265073333335,6.533334191333332
1518196689526.0,2.7063202186666664,-0.5134490673333336,6.286727757999999
1518196689728.0,2.8577118219999997,-0.9067657340000005,6.005447254666665
1518196689929.0,3.1628753986666664,-1.4459198006666667,5.326962154666665
1518196690130.0,3.291812165333333,-1.573904422666667,5.191836434666665
1518196690332.0,3.722897375333333,-2.9225433560000003,4.408773701333332
1518196690533.0,3.3960724186666664,-2.9134979493333337,4.145028597999998
1518196690734.0,3.950302162,-3.073220852666667,3.5801665513333325
1518196690936.0,3.8123199853333336,-3.0487823859999996,3.5242278513333325
1518196691137.0,4.480490162000001,-3.8360504859999995,3.1958159996666664
1518196691339.0,4.016397138666666,-3.894924999333333,2.8881133765999993
1518196691540.0,4.128036543333333,-4.3571137193333325,2.202645859933333
1518196691742.0,4.091696211333333,-4.371554636,1.9112884365999996
1518196691943.0,4.3515533799999995,-5.016159136,1.3341277865999999
1518196692145.0,4.207382236666667,-5.226980669333333,0.9815154815999999
1518196692346.0,4.117007481333332,-5.566738969333334,0.6657989325999997
1518196692547.0,4.102804600466666,-5.875869829333333,0.35841368660000006
1518196692749.0,4.164376863799999,-6.430654996000001,-0.4893951467333334
1518196692950.0,4.2484833138,-6.7139985026666675,-0.8629547334000001
1518196693152.0,3.9437958138000004,-7.8371369326666676,-1.4040130867333334
1518196693353.0,3.955142247133334,-7.917910859333333,-1.5328705034
1518196693556.0,4.372024567133334,-8.160470666,-1.8866729900666668
1518196693756.0,4.124148577133334,-7.919894493666667,-2.0452850500666666
1518196693958.0,4.804934693800001,-8.674234086333334,-1.5269989067333332
1518196694159.0,4.063052360466667,-7.673288046333333,-2.0115631200666666
1518196694360.0,4.567135610466667,-8.202285863,-2.460421756733333
1518196694563.0,4.012509137133333,-7.515390096333333,-2.9904510300666662
1518196694765.0,5.1208099038,-8.208712863,-3.0269500533999993
1518196694966.0,4.573721270466667,-7.596164049666666,-3.015841654733333
1518196695166.0,4.731460521133334,-7.930526843,-3.3151336434
1518196695369.0,4.252053787800001,-7.357333489666667,-3.0329803300666667
1518196695571.0,4.384402421133335,-7.746365462999999,-3.4073333634000003
1518196695772.0,4.064083817800002,-7.524673556333333,-3.1683441067333336
1518196695973.0,3.955300851133333,-7.445645222999999,-3.0586883400666673
1518196696174.0,3.5261992944666662,-7.444613728666667,-3.336477646733334
1518196696376.0,3.236825511133333,-6.666787795333333,-2.966647320066667
1518196696578.0,3.4445525678,-6.842300488666666,-2.7509063500666664
1518196696778.0,3.0501250678,-7.096206751999999,-2.5365142600666664
1518196696980.0,3.0441741377999993,-7.243869098666666,-2.7052825767333326
1518196697182.0,2.1825591377999998,-7.030111732,-2.8250945917333325
1518196697383.0,2.4257537244666665,-7.224270668666667,-2.975057968666666
1518196697584.0,2.4153594378000003,-7.271719402,-2.897933952
1518196697786.0,2.279122866466667,-7.578469895333333,-3.2635589619999994
1518196697988.0,2.1190825931333332,-7.329800462,-2.910708618666666
1518196698189.0,2.549691713133333,-7.526181068666667,-2.803115843666666
1518196698391.0,2.6734710098,-7.570455968666667,-2.832077024666666
1518196698592.0,2.8698516200000004,-7.591085851999999,-2.911025998666666
1518196698793.0,2.881832823333334,-7.451199352,-2.4463775653333335
1518196698994.0,2.8624724666666674,-7.605923465333333,-2.427255248666667
1518196699195.0,3.2329375533333335,-6.893240365333332,-2.2630096436666673
1518196699396.0,3.25404352,-7.258309955333333,-2.4339996370000008
1518196699598.0,2.803994696666667,-7.241568021999999,-2.226431280333334
1518196699801.0,2.8545379100000003,-7.5499054276666655,-2.1869171203333337
1518196700002.0,2.0996429099999996,-7.102395661,-2.536831683666667
1518196700203.0,2.67759701,-7.472622700999999,-2.167874160333333
1518196700405.0,2.2619048766666667,-7.1647613676666655,-1.8565216270000002
1518196700606.0,2.4842315366666665,-7.528958134333333,-1.9429290970000002
1518196700808.0,1.58643492,-7.208322134333334,-1.8618377903333336
1518196701008.0,1.9101653966666665,-7.5538726810000005,-1.9400726550000005
1518196701210.0,1.8783477766666667,-7.619015501000001,-1.6939422883333337
1518196701412.0,2.1819244433333336,-8.155154421,-1.701083401666667
1518196701612.0,2.23460999,-7.965280154333334,-1.4458282683333337
1518196701814.0,2.5030365,-8.199588027666668,-1.7662262183333337
1518196702015.0,2.40694886,-8.154360994333334,-1.554611228333334
1518196702218.0,2.80256653,-8.438101233333333,-1.5008148416666667
1518196702418.0,2.7614654566666665,-8.278298966666668,-1.4486847150000002
1518196702621.0,2.9787139933333333,-8.520858780000001,-1.765670801666667
1518196702822.0,2.9172210766666664,-8.520541380000001,-1.7788421883333339
1518196703023.0,3.162557993333333,-8.7992035,-1.9312652850000003
1518196703224.0,3.4459808433333325,-8.639877333333335,-1.848904441666667
1518196703425.0,3.7563018899999996,-8.792221083333333,-1.7660675283333336
1518196703626.0,3.7543975933333327,-8.690896616666667,-1.5302520916666666
1518196703828.0,4.020364389999999,-8.781509416666665,-1.2550811849999999
1518196704030.0,4.0105255233333335,-8.800552383333333,-1.402822885
1518196704231.0,3.824459863333333,-8.805233783333332,-1.5279510616666665
1518196704434.0,3.8874603499999996,-8.828720116666668,-1.5560394416666665
1518196704635.0,3.8282684599999994,-8.867837533333335,-1.5334259183333332
1518196704835.0,3.8153351066666663,-8.863632233333334,-1.5095428583333332
1518196705036.0,3.82319033,-8.847128333333334,-1.5137481816666667
1518196705239.0,3.8196197733333337,-8.851016266666667,-1.5321563833333334
1518196705440.0,3.7842315833333338,-8.849429333333333,-1.5208892933333333
1518196705642.0,3.760903946666667,-8.856887833333333,-1.5246978866666667
1518196705844.0,3.738687150000001,-8.872201550000002,-1.5229522800000002
1518196706045.0,3.708456433333334,-8.857284550000001,-1.5450897300000002
1518196706247.0,3.6759246933333336,-8.863711550000001,-1.5291412423333335
1518196706447.0,3.6766388033333333,-8.8820404,-1.503195195666667
1518196706648.0,3.63053895,-8.899337766666667,-1.500259405666667
1518196706851.0,3.549209603333334,-8.926156599999999,-1.4931182923333337
1518196707053.0,3.493429573333333,-8.948373399999998,-1.4833587690000003
1518196707253.0,3.4482818699999993,-8.967495733333331,-1.4764556923333334
1518196707455.0,3.4002777133333333,-8.985031133333331,-1.4749481256666668
1518196707657.0,3.3563995400000004,-8.999472066666666,-1.4616973923333334
1518196707858.0,3.3191864066666668,-9.014785766666664,-1.456381229
1518196708060.0,3.2780059866666664,-9.022006199999996,-1.4599517856666666
1518196708260.0,3.2410308899999998,-9.03581233333333,-1.4573333756666667
1518196708461.0,3.1994537399999996,-9.044778399999997,-1.456539919
1518196708663.0,3.162002566666666,-9.054934666666663,-1.447653199
1518196708864.0,3.1176483166666658,-9.062631199999995,-1.4447967556666665
1518196709065.0,3.0797210699999993,-9.086038166666663,-1.4291656523333331
1518196709266.0,3.055996706666666,-9.073898266666664,-1.4483673123333332
1518196709468.0,3.024258423333333,-8.992092846666667,-1.501846319
1518196709671.0,3.0187835699999996,-8.918460036666668,-1.6452240056666667
1518196709872.0,2.9773651133333323,-8.882278383333334,-1.7329803456666666
1518196710074.0,2.9425323499999996,-9.051284716666666,-1.7629730223333335
1518196710275.0,2.9432464599999992,-9.106588683333333,-1.6950530990000001
1518196710476.0,2.922695923333333,-9.123489316666666,-1.651174924666667
1518196710678.0,2.9184112566666665,-9.123251283333332,-1.648477168
1518196710880.0,2.9078582799999997,-9.113967816666666,-1.6275299030000001
1518196711080.0,2.888418583333333,-9.13293145,-1.5583404496666668
1518196711283.0,2.80431214,-9.215450983333334,-1.500180050666667
1518196711483.0,2.7773345999999997,-9.237191716666665,-1.4759002640000003
1518196711684.0,2.8216094933333333,-9.183236633333333,-1.674026484
1518196711887.0,2.8132781933333333,-9.127059883333331,-1.7863006540000002
1518196712087.0,2.730282586666667,-9.160702483333333,-1.893099974
1518196712289.0,2.670535273333334,-9.141976916666666,-1.9121429416666667
1518196712490.0,2.5962676933333335,-9.153005966666667,-1.9436431850000002
1518196712692.0,2.5937286300000006,-9.123171999999999,-1.968557735
1518196712894.0,2.6446685700000003,-9.094607566666665,-1.893258661666667
1518196713095.0,2.712112416666667,-9.08968813333333,-1.8313690136666667
1518196713297.0,2.7618621733333337,-9.074612433333332,-1.7445648136666665
1518196713497.0,2.8066131500000004,-9.131423966666667,-1.7313934269999998
1518196713698.0,2.7504363916666668,-9.065646366666666,-1.7762237503333331
1518196713900.0,2.7222686683333333,-9.071041866666665,-1.9007171569999999
1518196714102.0,2.715524281666667,-9.140390033333333,-1.916744990333333
1518196714303.0,2.6296722311000003,-9.159829733333334,-1.9360259936666664
1518196714505.0,2.7020355111000005,-9.179666166666667,-1.851919549333333
1518196714707.0,2.715048207766667,-9.157687399999999,-1.846206659333333
1518196714908.0,2.705685417766667,-9.168875133333332,-1.8088348316666665
1518196715110.0,2.670059197766667,-9.176333633333332,-1.8235931316666665
1518196715311.0,2.594522087766667,-9.2130707,-1.8585052416666663
1518196715511.0,2.636972037766667,-9.224734519999998,-1.8696929816666665
1518196715713.0,2.484945669433333,-9.309317029999997,-1.8840545516666665
1518196715915.0,2.5686553794333333,-9.301461806666666,-1.8649322449999999
1518196716117.0,2.6172942927666663,-9.147055073333334,-1.7786834641666667
1518196716318.0,2.6074554260999996,-9.093099973333333,-1.7826507495000001
1518196716519.0,2.607217389433333,-9.068582139999998,-1.8004241871666666
1518196716721.0,2.6546661127666664,-9.075643906666665,-1.7436126648333332
1518196716923.0,2.6996551227666665,-9.067550639999999,-1.7176666198333335
1518196717123.0,2.7178252860999996,-9.067629973333334,-1.7404388368333334
1518196717325.0,2.7486114194333333,-8.94012142666667,-1.8182769724999999
1518196717527.0,2.777810639433333,-8.846652193333336,-1.9138091991666666
1518196717729.0,2.7416290060999997,-8.886483743333333,-1.7904266324999998
1518196717930.0,2.7252044461,-8.901400743333333,-1.7664642325
1518196718131.0,2.792727639433333,-8.86506041,-1.6864837591666664
1518196718332.0,2.9191253427666664,-8.85069883,-1.676010125833333
1518196718534.0,2.9895049794333333,-8.825308196666667,-1.629672235833333
1518196718736.0,3.0075164561,-8.85974423,-1.5995208691666662
1518196718936.0,3.0670257327666666,-8.86498103,-1.6109466511666664
1518196719138.0,3.0947173860999997,-8.823562563333335,-1.6467315624999996
1518196719338.0,3.0625030294333335,-8.809756396666666,-1.7752716058333333
1518196719541.0,3.0614715361,-8.72200003,-1.829147335833333
1518196719742.0,3.1797759811,-8.739218053333332,-1.8453338591666666
1518196719943.0,3.2639617711,-8.694308399999997,-1.7514678925
1518196720145.0,3.3453704644333335,-8.596475133333334,-1.7772552425
1518196720347.0,3.5035857950000002,-8.5337127,-1.7767791725
1518196720548.0,3.5104888716666665,-8.473489313333333,-1.8970672601666667
1518196720750.0,3.572140488333334,-8.462777646666668,-1.9342803968333333
1518196720950.0,3.6619598216666667,-8.42088313,-1.9936309811666668
1518196721152.0,3.7789153883333335,-8.369308430000002,-2.0091033945
1518196721354.0,3.922451765000001,-8.316146830000001,-1.9826019278333336
1518196721554.0,3.9639495650000005,-8.363278176666668,-1.9347564711666667
1518196721757.0,4.160092143333333,-8.329556276666667,-1.8087554945
1518196721959.0,4.166915876666667,-8.343917853333332,-1.7729705811666665
1518196722160.0,4.20119322,-8.29837342,-1.8605682386666664
1518196722361.0,4.246420270000001,-8.269570953333334,-1.9567352299999998
1518196722563.0,4.314895613333333,-8.2439423,-2.0162445066666668
1518196722764.0,4.303945913333333,-8.21315618,-2.1081268323333333
1518196722966.0,4.312673946666667,-8.200064146666666,-2.1943756123333333
1518196723167.0,4.364407346666666,-8.152218693333333,-2.2727691686666667
1518196723369.0,4.457083126666666,-8.165072706666667,-2.2824493419999996
1518196723570.0,4.519210813333333,-8.202920606666668,-2.2517425553333332
1518196723770.0,4.574038693333334,-8.178164740000001,-2.224765015333333
1518196723971.0,4.65774841,-8.175387626666666,-2.186599732
1518196724173.0,4.730032339999999,-8.145712326666665,-2.1991363553333327
1518196724376.0,4.720748889999999,-8.147854659999998,-2.2476959286666665
1518196724577.0,4.786447133333334,-8.111434993333333,-2.3117279120000003
1518196724777.0,4.864840686666667,-8.059939626666667,-2.3563201953333337
1518196724979.0,4.879678333333334,-8.02923285,-2.4562957800000005
1518196725181.0,4.895547473333333,-8.022409116666665,-2.520724493333334
1518196725383.0,4.97663878,-8.002414016666666,-2.5112823500000006
1518196725584.0,5.019723496666667,-7.990353473333332,-2.501998906666667
1518196725786.0,5.045828230000001,-7.995987016666666,-2.477481083333333
1518196725987.0,5.074313330000001,-7.995828326666665,-2.476528936666667
1518196726189.0,5.076931736666667,-7.990036093333331,-2.454788213333333
1518196726390.0,5.0912933166666665,-7.990829543333331,-2.475418093333333
1518196726591.0,5.096371443333333,-7.990036086666665,-2.4689910933333326
1518196726793.0,5.107638526666666,-7.980990666666664,-2.4724823033333334
1518196726994.0,5.119381693333334,-7.969644229999997,-2.481845096666666
1518196727196.0,5.121285993333334,-7.964724796666664,-2.4824798599999998
1518196727397.0,5.074630720000001,-7.94282536333333,-2.5375457800000003
1518196727598.0,5.064474473333334,-7.94861758333333,-2.5316741966666667
1518196727800.0,5.080899033333334,-7.940841683333332,-2.51667786
1518196728001.0,5.01432799,-7.999557499999997,-2.4991424600000003
1518196728203.0,4.998855580000001,-8.01161803333333,-2.4918426533333333
1518196728404.0,4.889279163333334,-8.06041563333333,-2.461849976666667
1518196728606.0,4.789144886666667,-8.100723253333332,-2.45589905
1518196728808.0,4.698690786666667,-8.137698339999998,-2.44145813
1518196729007.0,4.62434386,-8.170864839999998,-2.422811886666667
1518196729210.0,4.539602649999999,-8.202761826666666,-2.414718623333334
1518196729410.0,4.465731796666666,-8.237197859999998,-2.4073394733333338
1518196729611.0,4.388369736666665,-8.272268659999998,-2.405911250000001
1518196729813.0,4.310134873333333,-8.298611426666666,-2.4151153500000007
1518196730015.0,4.20293883,-8.272030613333333,-2.442172233333334
1518196730216.0,3.94712829,-8.519192480000001,-2.5596038733333337
1518196730419.0,3.8811126700000003,-8.654159526666668,-2.67600402
1518196730620.0,3.753604126666667,-8.355660989999999,-2.6118133466666666
1518196730822.0,3.330532836666667,-9.373666356666666,-3.03821716
1518196731022.0,3.158670044966667,-9.021292086666667,-2.9453033426666666
1518196731224.0,2.915316771633333,-8.86442563,-2.770028682666667
1518196731426.0,3.010928354966667,-9.433175596666665,-2.973153692666667
1518196731626.0,2.888974011633334,-9.138882384999999,-3.0686859159999997
1518196731827.0,2.6159454483,-8.979952945,-3.0898712193333333
1518196732029.0,2.498513814966667,-9.366604555,-3.228488159333333
1518196732230.0,2.569845594966667,-9.075405824999999,-3.4721587993333336
1518196732433.0,2.4029815749666668,-8.955831851666666,-3.5761016726666663
1518196732635.0,2.3975860649666663,-9.014388995000001,-3.5410308693333334
1518196732836.0,2.2872955383,-8.816024735000003,-3.412887559333333
1518196733036.0,2.145901494966666,-9.21076962166667,-4.153262309333333
1518196733239.0,2.1470123282999998,-9.096194421666668,-4.051303082666666
1518196733439.0,2.1273345949666664,-9.009390221666667,-3.822073346
1518196733641.0,2.2593658416333335,-10.032830821666668,-4.049160752666666
1518196733842.0,1.7914642249666668,-9.495819121666667,-4.077169785999999
1518196734043.0,1.8651763849666672,-9.174469023333334,-3.906021105999999
1518196734244.0,1.6345184249666669,-9.719653356666667,-4.309890736
1518196734446.0,1.6582427916333338,-9.37092899,-4.612911969333332
1518196734649.0,1.5142303383000004,-9.261828646666665,-4.676626569333334
1518196734850.0,1.3918792616333335,-8.952380413999997,-4.360592635999999
1518196735051.0,1.4386138883000001,-8.74901738733333,-4.069155869333333
1518196735253.0,1.3454620338000003,-9.745718453999999,-4.313540619333333
1518196735455.0,1.1819305438,-9.303207453999999,-4.120095796
1518196735656.0,1.0491058338,-9.081515554,-3.9593414026666665
1518196735858.0,1.3322113171333332,-9.934957953999998,-4.138980086
1518196736059.0,1.2300140504666668,-9.580282664,-3.9217315493333333
1518196736260.0,1.3539520371333331,-9.133645700666666,-3.5203216360000003
1518196736462.0,1.3020599471333336,-9.672720400666668,-3.738839692666667
1518196736663.0,1.1989898804666668,-9.444363470666667,-3.559042329333333
1518196736865.0,1.5123260638,-8.248544380666669,-2.8509612726666664
1518196737066.0,1.9583282554999997,-9.106033394,-3.325369243333333
1518196737266.0,1.908975228833333,-8.793490670666666,-3.433834819999999
1518196737467.0,1.8896148621666666,-8.018838603999999,-3.6748077199999996
1518196737670.0,1.8278045574999997,-8.728347892333332,-3.7105132866666666
1518196737872.0,2.067745964166666,-8.627340811,-3.77287901
1518196738072.0,2.1240814141666666,-8.304165777666666,-4.232687376666667
1518196738274.0,1.9967315674999997,-8.682882807666665,-4.024008193333333
1518196738475.0,1.9939544678333334,-8.510623286,-3.8596832416666675
1518196738676.0,1.4813812345000001,-8.929092519333333,-3.722970595
1518196738877.0,1.4933624345,-9.027322499333332,-3.8340545816666673
1518196739079.0,1.3747406078333335,-8.425088599333336,-2.913803125
1518196739280.0,1.5210540744999999,-9.305191132666668,-3.193972798333333
1518196739482.0,1.2789703278333333,-9.098336892666667,-3.1136749449999996
1518196739683.0,1.0262542678333335,-7.867804022666668,-2.6495025783333332
1518196739885.0,1.7102142345,-9.230804489333332,-2.8536590716666663
1518196740087.0,1.4226654045000005,-9.076080370999998,-2.9193573116666665
1518196740289.0,1.4485321045000004,-8.314123591,-2.3125213749999993
1518196740489.0,1.5863555878333337,-9.011096257666667,-2.2188141083333335
1518196740692.0,1.5210540745000003,-8.571203677666668,-2.130026265
1518196740894.0,1.970150751166667,-8.669116277,-2.9296722749999993
1518196741093.0,1.8766021611666672,-9.050689770333335,-3.309738194999999
1518196741296.0,1.8085235490000007,-7.774850503666666,-3.1825470483333334
1518196741496.0,2.0116485490000007,-8.207284603666666,-3.346871998333333
1518196741697.0,2.166372675666667,-8.479757737,-3.4454987063333333
1518196741900.0,1.9109588423333335,-7.644882236999999,-3.1923859030000004
1518196742102.0,2.055606059,-8.072555587,-3.3192596830000003
1518196742302.0,2.1492339890000003,-8.302261383666666,-3.5521393229999996
1518196742504.0,2.2527801323333336,-7.659878583666666,-3.163583423
1518196742706.0,2.4547942923333337,-8.209268217,-3.343380786333333
1518196742908.0,2.537948589,-8.417709373666666,-3.5741974363333333
1518196743108.0,2.244052109,-7.933462540333332,-3.141842688333333
1518196743310.0,2.5030364890000003,-8.428976453666666,-3.1616791149999997
1518196743511.0,2.3998870790000004,-8.659475720333333,-2.6715606983333333
1518196743713.0,2.560879517,-8.269808953666667,-2.4939056683333334
1518196743915.0,2.573019410333333,-8.551010125,-2.3628265649999998
1518196744116.0,2.609201050333333,-8.510226425,-1.7215545783333335
1518196744318.0,2.651254273666667,-8.439767458333334,-1.6461761616666668
1518196744518.0,2.79653626,-8.754373170000001,-1.6531585833333335
1518196744721.0,3.2933196933333337,-8.304006936666667,-1.7734466683333336
1518196744921.0,3.3735382033333337,-8.431753520000001,-1.744882211666667
1518196745123.0,3.6050689633333337,-8.668203720000001,-1.8789764483333335
1518196745324.0,3.435824596666667,-7.928146353333334,-1.651095591666667
1518196745525.0,3.728689596666667,-8.268777459999999,-1.849063121666667
1518196745726.0,3.8573089800000004,-8.479360963333333,-2.0536956916666664
1518196745928.0,3.597055080000001,-7.68606263,-1.7946319716666668
1518196746131.0,3.866275053333334,-8.122860730000001,-1.882150281666667
1518196746332.0,4.076065093333334,-8.345504776666669,-2.0475067250000003
1518196746533.0,4.009652743333334,-7.969009409999999,-1.8197052116666668
1518196746735.0,4.306485020000001,-8.5012604,-1.8074859749999999
1518196746936.0,4.070510903333334,-8.694943266666668,-1.2906280483333332
1518196747138.0,4.174612460000001,-8.497134433333331,-1.1777984583333332
1518196747339.0,4.4190765700000005,-8.753897133333332,-1.021804805
1518196747541.0,4.4237579600000005,-8.757229633333333,-1.0241058316666667
1518196747742.0,4.473983793333333,-8.6802643,-1.0474334669999998
1518196747944.0,4.5180206599999995,-8.656381233333333,-1.0740142769999999
1518196748145.0,4.569992096666667,-8.608377066666666,-1.0938507036666665
1518196748345.0,4.590463286666668,-8.567752083333332,-1.1013885436666664
1518196748546.0,4.603714020000002,-8.544345083333331,-1.112576287
1518196748749.0,4.630850250000002,-8.535299683333331,-1.1355071936666665
1518196748951.0,4.648941070000001,-8.521334849999999,-1.1439971836666665
1518196749151.0,4.664730866666667,-8.513241583333333,-1.150265495
1518196749352.0,4.693295316666667,-8.500228883333332,-1.1538360516666668
1518196749555.0,4.719400060000001,-8.489755249999998,-1.1564544583333334
1518196749756.0,4.73939517,-8.489358516666666,-1.1605010916666667
1518196749958.0,4.761215236666667,-8.481503299999998,-1.1701019216666668
1518196750159.0,4.785018946666668,-8.477535999999999,-1.1689910816666669
1518196750360.0,4.81247256,-8.413504009999999,-1.1777191083333332
1518196750561.0,4.835482809999999,-8.39422301,-1.1847015316666665
1518196750764.0,4.863809233333334,-8.378750609999999,-1.1872405933333332
1518196750966.0,4.859365866666668,-8.370260626666665,-1.1975555366666666
1518196751167.0,4.879678366666666,-8.358438126666668,-1.19858703
1518196751367.0,4.876504533333333,-8.323208626666666,-1.1561370803333333
1518196751568.0,4.706149303333333,-8.521096793333333,-1.111306759
1518196751771.0,4.495089733333333,-8.238150009333333,-1.273251339
1518196751973.0,4.419949346666666,-8.085885609333333,-1.551437359
1518196752174.0,3.85167542,-7.754299909333333,-1.2235015756666665
1518196752375.0,5.006472763333333,-8.426119942666666,-0.9690399056666665
1518196752576.0,4.600936879999999,-8.043991032666666,-0.9378570436666667
1518196752778.0,4.409317005666667,-7.988687066000001,-1.1666900503333335
1518196752979.0,4.158822622333333,-7.579977342666667,-0.9940338003333332
1518196753181.0,4.384005722333334,-7.768264676000001,-1.148440537
1518196753383.0,4.351235945666667,-7.827932642666668,-1.4436065536666667
1518196753584.0,4.358694445666666,-7.845230009333333,-1.5335845803333332
1518196753784.0,3.976882912333333,-7.682571329333334,-1.6105499136666666
1518196753985.0,3.669894385666667,-7.659799129333335,-1.331808460333333
1518196754186.0,3.5238189446666666,-7.946078429333335,-1.8028839003333332
1518196754390.0,3.621493511333333,-7.933065732666669,-1.8806426903333335
1518196754591.0,3.2211944346666668,-8.141110166,-1.877072133666667
1518196754792.0,2.951974461333334,-7.899343809333335,-1.8274810703333333
1518196754994.0,3.0156890613333336,-8.199111842666667,-2.225955187
1518196755195.0,2.9699859346666666,-7.985830606000001,-2.1897735456666663
1518196755396.0,2.4212310513333333,-8.988998339333333,-2.591104095666666
1518196755598.0,2.081076018,-8.565530322666667,-2.610543795666666
1518196755800.0,2.169070408,-8.659158256000001,-3.0816985689999994
1518196756001.0,2.4485259746666665,-8.457223432666666,-3.2608611656666664
1518196756201.0,2.2362762213333327,-9.46852413266667,-3.728048659
1518196756403.0,1.941824318,-9.071874956,-3.6494964123333333
1518196756604.0,1.977926614666667,-8.986260936,-3.797000069
1518196756807.0,1.9671355913333337,-8.729736277999997,-3.785971017
1518196757007.0,2.5286651246666674,-9.299993844666666,-3.6887725303333334
1518196757209.0,2.1873199113333337,-8.764648378,-3.7270171569999997
1518196757411.0,2.1049590713333335,-8.521533149333333,-3.9836211633333334
1518196757612.0,2.0764739646666674,-7.661505082666665,-4.062252754666667
1518196757814.0,2.4036163113333338,-8.2337463,-4.115890448
1518196758014.0,2.052590931333334,-8.328643766666668,-4.181350681333333
1518196758217.0,2.5352508413333337,-8.608099333333334,-4.520156827999999
1518196758418.0,1.2800018379999998,-7.633337401666666,-5.008450274666666
1518196758620.0,1.723623658,-8.178283678333333,-5.143893383333333
1518196758820.0,1.407351689,-8.018005358333333,-4.8743560299999995
1518196759021.0,1.6280914323333333,-8.467974848333334,-5.291476406666666
1518196759224.0,1.141940319,-7.775762948333334,-4.899111906666667
1518196759425.0,1.3148345956666665,-8.031890881666667,-4.818258636666667
1518196759627.0,1.265243532333333,-7.414581315,-4.595138520000002
1518196759828.0,1.6836334323333335,-7.448461928333333,-4.96893612
1518196760028.0,1.987289439,-7.205346688333333,-5.297189293333333
1518196760231.0,2.509384186666667,-7.950918621666666,-5.07089536
1518196760432.0,2.2643646520000003,-7.703280682000001,-4.8764983866666665
1518196760634.0,2.7669403286666663,-7.855386382000002,-5.181344566666667
1518196760835.0,2.9856964353333333,-7.960995515333335,-5.17721859
1518196761036.0,2.121066292,-7.798257515333335,-4.608944666666666
1518196761238.0,1.838992318666667,-7.994162052000002,-4.706857264666666
1518196761439.0,2.379098518666667,-7.298934985333334,-4.895541364666666
1518196761640.0,2.5916656553333337,-7.705581712000001,-4.863088971333334
1518196761842.0,1.8240753219999999,-7.664877378666667,-4.190475454666667
1518196762044.0,1.3158660953333332,-7.9037873020000005,-4.088357534666667
1518196762245.0,1.5550140486666661,-7.262475635333334,-3.6370391813333334
1518196762447.0,1.6721283057333332,-7.776873835333333,-3.730746458
1518196762648.0,1.5074066257333332,-7.926837222,-3.5945098913333333
1518196762850.0,1.3719635174000002,-8.21359258,-3.6071258566666664
1518196763051.0,0.7444977074000002,-7.658966113333333,-3.7018646266666666
1518196763251.0,1.0199066440666669,-8.20510258,-3.67155457
1518196763454.0,1.0316498074,-8.518597442,-3.4534332300000004
1518196763655.0,1.1847076673999999,-9.197161908666667,-3.4353424100000005
1518196763856.0,0.9970550673999998,-8.944445842,-3.2011138953333336
1518196764058.0,1.361331180733333,-9.023950242000002,-2.8487396153333338
1518196764260.0,1.3775177040666666,-9.099090608666666,-2.8216827286666666
1518196764461.0,1.415048220733333,-9.428137240333335,-2.587454225333333
1518196764661.0,1.3110260007333336,-9.284680207,-2.493191535333333
1518196764864.0,1.7436981174000001,-9.521209760333333,-2.5341339186666665
1518196765065.0,1.7006134007333331,-9.502404827,-2.289590448666666
1518196765267.0,1.893978880733333,-10.032592793666666,-2.518185418666666
1518196765468.0,1.6749054074,-9.749725360333333,-2.302444450666666
1518196765670.0,1.6628448607333335,-10.365924093666665,-2.4226531906666664
1518196765871.0,1.5519195607333331,-10.525964393666667,-1.9658599839999997
1518196766072.0,1.4843170240666665,-10.812164333666667,-1.909286497333333
1518196766273.0,1.0425994740666666,-9.825619500333332,-1.6622833106666663
1518196766474.0,1.1223419087333335,-10.136813353333334,-1.7799529906666665
1518196766675.0,0.9486541754000001,-9.810305820000002,-1.4678070073333331
1518196766877.0,0.9183441187333333,-9.974710110000002,-1.5174774173333332
1518196767079.0,1.642294328733333,-9.865689110000002,-1.6851348906666668
1518196767280.0,1.8880279720666662,-9.919326810000001,-1.6244354273333335
1518196767481.0,1.8145538520666664,-9.641537510000001,-1.0244232173333334
1518196767684.0,1.8603363220666664,-9.6885895,-1.0321197506666668
1518196767886.0,2.458047502066666,-9.655422999999999,-1.2244537373333333
1518196768087.0,2.6048370520666664,-9.646456933333331,-1.139157107333333
1518196768289.0,2.4995452987333326,-9.303207399999998,-1.122335817333333
1518196768489.0,2.588412488333333,-9.27012023333333,-1.0973419193333334
1518196768691.0,2.631814588333333,-9.245999133333331,-1.0786956760000002
1518196768893.0,2.6864837766666665,-9.254171766666664,-1.075601196
1518196769093.0,2.6894989133333334,-9.267898566666666,-1.0654449460000002
1518196769294.0,2.6773590233333335,-9.287338266666666,-1.051480102666667
1518196769495.0,2.6821197666666667,-9.276229866666666,-1.051638793666667
1518196769697.0,2.662521376666667,-9.276626599999998,-1.033309937
1518196769899.0,2.6334015033333333,-9.277261366666666,-1.0411651616666668
1518196770101.0,2.63213197,-9.2766266,-1.0378326416666668
1518196770303.0,2.579287733333333,-9.284402499999999,-1.041323855
1518196770503.0,2.5240631233333337,-9.288766500000001,-1.021725465
1518196770705.0,2.472726456666667,-9.291067533333333,-0.9976043716666667
1518196770907.0,2.4093292386666665,-9.305667133333333,-0.9814178483333333
1518196771107.0,2.3321258696666662,-9.3328827,-0.9669769283333333
1518196771309.0,2.307449356333333,-9.345260633333334,-0.9472198483333333
1518196771510.0,2.2315948629999993,-9.355496233333334,-0.9338104243333335
1518196771713.0,2.1693084863333327,-9.365097066666667,-0.9200836176666666
1518196771913.0,2.1124176196666657,-9.367874166666669,-0.9046905526666666
1518196772114.0,2.070999159666666,-9.374063133333333,-0.9042144793333333
1518196772316.0,2.0335479863333332,-9.379458633333334,-0.9089752226666667
1518196772517.0,2.008792123,-9.3792206,-0.9165924093333334
1518196772720.0,1.9650726396666667,-9.390090933333333,-0.9303192159999999
1518196772921.0,1.9426178030000003,-9.395883166666668,-0.9322235126666668
1518196773122.0,1.9281768863333337,-9.397073333333333,-0.9408721926666667
1518196773324.0,1.9178619430000003,-9.395962499999998,-0.945632936
1518196773526.0,1.9040557896666668,-9.396041866666666,-0.9577728293333333
1518196773726.0,1.8807281496666666,-9.398898333333332,-0.9701507593333334
1518196773929.0,1.857162473,-9.402072166666665,-0.9819732693333334
1518196774130.0,1.8568450896666668,-9.401992799999999,-0.9933990526666666
1518196774330.0,1.8440704329999997,-9.397232066666664,-1.0441803026666667
1518196774532.0,1.8164581263333333,-9.32978823333333,-1.113052374
1518196774734.0,1.8922332696666664,-9.22735293333333,-1.2025543273333335
1518196774936.0,1.920400996333333,-9.211007699999998,-1.331887824
1518196775136.0,1.8155059776666664,-9.180142233333333,-1.3047515926666666
1518196775338.0,1.776150504333333,-9.1611786,-1.3248260559999998
1518196775540.0,1.763375844333333,-9.174826066666666,-1.2831695616666665
1518196775741.0,1.7277496276666666,-9.184426866666668,-1.2657928516666666
1518196775943.0,1.7963043143333333,-9.167684933333334,-1.2808685349999998
1518196776145.0,1.798843377666667,-9.086910999999999,-1.3412506149999996
1518196776346.0,1.8766021676666667,-9.060568233333333,-1.468838508333333
1518196776547.0,1.8589874210000001,-9.0429535,-1.546200568333333
1518196776749.0,2.001809687666667,-9.054061899999999,-1.6118988116666664
1518196776949.0,2.115115355666667,-9.050729366666665,-1.6563324049999997
1518196777150.0,2.205807498,-9.008438099999998,-1.6245147783333331
1518196777352.0,2.2196136513333333,-9.044937133333331,-1.655776985
1518196777554.0,2.3200653113333334,-9.104129033333331,-1.7646392903333332
1518196777756.0,2.4113922146666664,-8.973605346666666,-1.8758026203333333
1518196777956.0,2.443606571333333,-8.936312846666667,-2.0049774253333332
1518196778157.0,2.426626591333333,-9.029544046666667,-2.0456024253333336
1518196778360.0,2.473440558,-9.081515479999998,-2.072659308666667
1518196778561.0,2.5287445146666667,-9.079055746666667,-2.070993048666667
1518196778763.0,2.6162628313333336,-9.067153913333334,-2.034494024666667
1518196778963.0,2.616104138,-9.081277446666668,-1.9658599913333332
1518196779165.0,2.5816681013333334,-9.077548213333332,-1.9975982713333333
1518196779366.0,2.6045990113333337,-9.055728146666667,-2.0909881613333328
1518196779567.0,2.6370514046666664,-8.983999613333333,-2.183029178
1518196779770.0,2.6964813379999995,-8.930679293333332,-2.2948272713333338
1518196779970.0,2.7580536013333328,-8.867916826666667,-2.3815521246666664
1518196780173.0,2.5828582879999993,-8.856094326666668,-2.332833861333333
1518196780374.0,2.600869764666666,-8.854031326666668,-2.2849090579999993
1518196780575.0,2.6315765513333327,-8.921237126666666,-2.243887327999999
1518196780778.0,2.665457174666666,-9.02398981,-2.100430297999999
1518196780978.0,2.6994171346666658,-9.175460776666666,-1.9116668680000002
1518196781179.0,2.838827533333333,-9.235842843333334,-2.027987669333333
1518196781382.0,2.8470001399999996,-9.128567463333333,-2.069406126
1518196781582.0,2.654190083333333,-9.108969096666668,-2.299826049333334
1518196781783.0,2.7432953,-9.081356796666668,-2.3037139893333336
1518196781986.0,2.728457653333334,-9.115396096666666,-2.245077515
1518196782188.0,2.749325576666667,-9.202755696666665,-2.157638550133334
1518196782389.0,2.735519423333334,-9.21434016333333,-1.9946624721333335
1518196782590.0,2.835256973333334,-9.224496413333332,-1.8934967014666666
1518196782791.0,2.837796040000001,-9.230606046666665,-1.8270050014666668
1518196782993.0,2.8738983300000003,-9.218307479999998,-1.7604339563333333
1518196783194.0,2.88865663,-9.166891479999997,-1.8141509963333333
1518196783396.0,2.9540374899999997,-9.086990346666663,-1.8478729196666668
1518196783597.0,2.992282119999999,-9.122061146666663,-1.8246246263333332
1518196783798.0,3.109555069999999,-9.217355333333332,-1.7386138863333334
1518196783999.0,3.168667616666666,-9.23314513333333,-1.6336395196666667
1518196784200.0,3.243014539999999,-9.127932733333331,-1.579605095
1518196784403.0,3.2708648799999995,-9.074533099999998,-1.494467156
1518196784605.0,3.2909393433333327,-9.154513566666665,-1.4601104666666664
1518196784806.0,3.295144656666666,-9.248538199999999,-1.4866119306666667
1518196785006.0,3.344497686666666,-9.163400266666667,-1.6147552406666668
1518196785209.0,3.4386810366666656,-9.114443966666666,-1.5780975273333333
1518196785410.0,3.383535773333332,-9.221322633333331,-1.4267852729999997
1518196785612.0,3.528897099999999,-9.268374633333334,-1.302609246333333
1518196785813.0,3.5116790833333322,-9.338833619999999,-1.1457427923666665
1518196786014.0,3.487399303333333,-9.396835320000001,-1.0406890807
1518196786215.0,3.684970103333333,-9.390328986666667,-1.0346588073666665
1518196786418.0,3.769235236666666,-9.41659242,-1.0049835147
1518196786619.0,3.7417022766666665,-9.420480353333334,-0.9576141303666666
1518196786820.0,3.614352416666666,-9.363668836666664,-1.0457672070333335
1518196787021.0,3.608401483333333,-9.087942503333332,-1.2355621303666668
1518196787223.0,3.5339752166666663,-9.01296082,-1.2420684737000003
1518196787425.0,3.54357605,-9.100399783333332,-1.2324676437
1518196787625.0,3.77455139,-9.116903683333332,-1.066159050366667
1518196787826.0,3.739480596666666,-9.112698383333333,-1.0701263353666668
1518196788028.0,3.68068543,-9.094448850000001,-1.0944854663666668
1518196788229.0,3.688302613333333,-9.101431283333334,-1.1083709645666668
1518196788432.0,3.637521363333333,-9.172445683333333,-1.2321502625666667
1518196788633.0,3.6232391366666663,-9.175460833333334,-1.2629363952333332
1518196788834.0,3.5197723366666667,-9.14911805,-1.278805535233333
1518196789035.0,3.420669553333333,-9.146420283333333,-1.3184783870333332
1518196789236.0,3.3913909866666665,-9.215689083333332,-1.3190338070333332
1518196789439.0,3.36282653,-9.242349249999998,-1.275790400366667
1518196789639.0,3.284591666666667,-9.141104116666664,-1.2109649637000002
1518196789842.0,3.1528778,-9.16062315,-1.1925567590333337
1518196790044.0,3.1342315633333335,-9.17625425,-1.1925567590333335
1518196790244.0,3.1070953366666676,-9.179745483333333,-1.2173126170333333
1518196790446.0,3.068930053333334,-9.177841183333333,-1.2786468460333336
1518196790648.0,3.0015655500000005,-9.109445183333333,-1.3096710153666666
1518196790848.0,2.947689820000001,-9.020578016666667,-1.3125274620333331
1518196791049.0,2.9009552000000007,-9.108334383333334,-1.2476226787000002
1518196791252.0,2.856759643333334,-9.164114416666665,-1.2335784887
1518196791453.0,2.9368194566666674,-9.068978916666664,-1.2719818097000002
1518196791654.0,2.79621887,-9.09071965,-1.2755523663666668
1518196791856.0,2.8007415766666663,-9.064456216666667,-1.2931671123333335
1518196792058.0,2.8262908899999997,-9.059933516666668,-1.2863433820000003
1518196792259.0,2.8401763899999994,-9.06921695,-1.3107025120000002
1518196792461.0,2.7866973866666664,-9.039779716666667,-1.3249053926666667
1518196792661.0,2.84739685,-9.027481149999998,-1.3346649136666668
1518196792862.0,2.9057159433333335,-9.073184283333333,-1.2935638390000002
1518196793064.0,2.8938934400000007,-9.199264616666664,-1.1523284866666668
1518196793265.0,2.974905400000001,-9.234097366666665,-1.047354125
1518196793467.0,3.042190553333334,-9.25956735,-0.9882415773333333
1518196793669.0,3.0674224866666675,-9.240206983333332,-0.9589630106666666
1518196793871.0,3.0955902133333337,-9.250442566666667,-0.96340637
1518196794072.0,3.15827332,-9.244650333333333,-0.9684051499999999
1518196794272.0,3.0748016400000004,-9.114999456666666,-0.9653900133333333
1518196794473.0,3.474942023333334,-9.380648856666665,-0.9837982166666666
1518196794676.0,3.368301398,-8.99010929,-0.9335723866666666
1518196794877.0,3.2111969046666666,-8.813009679999999,-0.9127838133333332
1518196795079.0,3.291098031333333,-9.105636646666666,-1.16549989
1518196795279.0,3.014816298,-8.862362713333333,-0.9830047799999999
1518196795480.0,3.0289398346666667,-8.904812679999997,-1.2299285999999998
1518196795683.0,2.8496185413333333,-8.724697936666663,-1.2089813333333332
1518196795885.0,3.0559967080000003,-8.446115183333331,-1.083853158
1518196796086.0,3.1439910913333335,-9.436706649999998,-1.3620391913333334
1518196796288.0,2.982205201333334,-8.96626596,-1.3345855793333332
1518196796488.0,2.847396851333334,-8.77290047,-1.3944122393333331
1518196796689.0,3.085989381333334,-9.618646336666666,-1.630783079333333
1518196796891.0,2.829782098000001,-9.246197599999999,-1.693228146
1518196797092.0,2.793521111333334,-8.834869459999998,-1.701321406
1518196797295.0,2.8642181280000005,-9.338555993333333,-2.094876099333333
1518196797495.0,2.6226104613333336,-8.898504713333333,-2.177792359333333
1518196797696.0,2.5506439113333337,-8.602941963333333,-2.143832398
1518196797899.0,2.6234039213333338,-8.829870663333335,-2.1662872326666665
1518196798099.0,2.444082634666667,-8.555572574333334,-2.0648834246666663
1518196798301.0,2.4817718446666666,-8.783136041,-1.9101593046666663
1518196798503.0,2.5193817146666664,-8.676574741000003,-1.999581913333333
1518196798704.0,2.4869293213333328,-8.447662381000002,-1.956655888333333
1518196798907.0,2.170498654666666,-9.311419681000002,-1.7475799596666666
1518196799108.0,2.0421173061333335,-9.075921624333336,-1.772415165333333
1518196799308.0,2.0692535394666667,-8.785913092333336,-1.6590301569999997
1518196799509.0,2.2162811194666663,-9.580560292333336,-1.9403900146666664
1518196799712.0,2.1184478694666664,-9.239294429000001,-1.8756439213333331
1518196799914.0,2.055129996133333,-9.037280269,-1.744961547
1518196800115.0,2.2744415227999997,-9.725128168999998,-1.9249969403333334
1518196800316.0,2.120590206133333,-9.386004635666666,-1.8231964036666666
1518196800519.0,1.7256866394666663,-8.860815435666666,-1.6418914703333334
1518196800719.0,1.8732696514666662,-9.670538335666667,-1.9386444049999998
1518196800921.0,1.7755157447999999,-9.417504889,-2.080435178333333
1518196801122.0,1.636581416133333,-9.289282222333332,-2.2319854450000003
1518196801324.0,1.8509734994666662,-9.389099122333333,-2.457089198333333
1518196801525.0,1.7671050894666664,-9.063146959,-2.0659148883333334
1518196801725.0,1.925637806133333,-9.887786835666667,-2.3398955916666666
1518196801926.0,1.5422393727999997,-9.783843965666666,-2.4131316773333333
1518196802129.0,1.4344879061333333,-8.552755675666665,-2.1635100973333334
1518196802330.0,1.8750945961333332,-9.673672432333333,-2.5042205426666664
1518196802531.0,1.7805145128,-9.370333809,-2.368698081333333
1518196802734.0,1.6284881461333331,-8.315115299000002,-2.8961089813333327
1518196802935.0,1.7150543127999998,-8.998599202333336,-2.913088961333333
1518196803136.0,1.5590606594666665,-9.03105159566667,-2.9019805636666667
1518196803338.0,1.1374969461333333,-9.245999062333336,-2.7281341303333333
1518196803539.0,1.3036468494666664,-9.42317801566667,-2.547384617
1518196803740.0,1.3644256561333332,-9.438888465666668,-2.431460548333334
1518196803941.0,0.9506378128,-10.004782032333335,-2.873654151666667
1518196804143.0,1.0419647161333332,-9.801022268,-2.9000762683333337
1518196804345.0,0.8841461111333333,-9.420797668,-2.891427588333334
1518196804547.0,0.7621917578,-9.997006168,-3.2707793883333336
1518196804748.0,0.6457916128000001,-9.655660961333334,-3.2253143
1518196804949.0,0.9364349228,-8.527999837999998,-3.4105865176666668
1518196805150.0,0.7436248646666668,-8.881326261333333,-3.4943755776666667
1518196805352.0,0.5251861413333335,-9.086593593333333,-3.6072845110000005
1518196805554.0,0.15400695133333372,-8.31273496,-3.3271941843333335
1518196805755.0,0.14297789800000024,-8.680502290000002,-3.4034454043333335
1518196805957.0,0.10457457800000014,-8.898702966666669,-3.5489654243333337
1518196806158.0,-0.2091583353333332,-8.222598233333333,-3.381307961000001
1518196806358.0,-0.058322155333333195,-8.679391443333333,-3.500167824333334
1518196806561.0,-0.08823548533333325,-8.879421976666666,-3.5694366243333344
1518196806763.0,-0.20661927866666666,-8.47928161,-3.3192596176666673
1518196806963.0,0.019912701333333387,-8.927743516666666,-3.173422213666668
1518196807165.0,0.05680845333333341,-8.771273783333331,-2.7389251570000006
1518196807367.0,0.07521665666666676,-8.928616316666664,-2.657754503333334
1518196807568.0,0.08116758666666674,-9.224496446666665,-2.778042590000001
1518196807769.0,0.06363218666666669,-8.573544313333331,-2.4979522676666677
1518196807971.0,0.19225157333333348,-8.953848269999996,-2.5601592986666675
1518196808172.0,0.14781798000000007,-9.216165159999997,-2.5060455300000006
1518196808374.0,-0.11672059666666665,-8.582510359999997,-2.159622194
1518196808575.0,0.13956603000000006,-9.066836539999999,-2.2039764420000005
1518196808776.0,0.041653430000000144,-9.283688349999998,-1.4182952886666667
1518196808977.0,0.20462950666666674,-8.97487485,-1.3054657003333332
1518196809179.0,0.40442198666666673,-9.310269130000002,-1.2868988056666666
1518196809381.0,0.7573516733333332,-8.58996886333333,-1.0529083196666669
1518196809582.0,0.8032134933333333,-8.86474302333333,-1.1393951363333337
1518196809784.0,0.7941680833333334,-9.145864856666664,-1.2912628086666669
1518196809985.0,1.1420196466666666,-8.344393923333332,-0.8225677400000002
1518196810187.0,1.1996246299999997,-8.833639543333332,-0.9015167166666669
1518196810388.0,1.298092648333333,-8.992092909999998,-1.061318961
1518196810588.0,1.3457794149999998,-8.537362676666667,-0.5842925993333333
1518196810791.0,1.46297302,-9.119442743333334,-0.6622100803333334
1518196810993.0,1.4583709700000003,-9.395962533333332,-0.6721282933333333
1518196811194.0,1.7493316633333333,-9.288369766666667,-0.5566802973333332
1518196811394.0,1.90913391,-9.381204233333333,-0.5414459233333333
1518196811597.0,2.0739349333333337,-9.377713033333333,-0.5318450933333333
1518196811798.0,2.120590206666667,-9.426748666666667,-0.5061370866666667
1518196811998.0,2.2131072966666667,-9.41333925,-0.480349734
1518196812201.0,2.296340943333333,-9.400009183333333,-0.46281433266666666
1518196812401.0,2.3887786866666665,-9.391360516666666,-0.4471832283333333
1518196812604.0,2.4768524166666666,-9.385092183333333,-0.4277435303333333
1518196812804.0,2.5544525133333336,-9.363589483333334,-0.41711120599999996
1518196813005.0,2.61713562,-9.347958383333332,-0.42575988766666656
1518196813208.0,2.6772796633333336,-9.338278216666666,-0.4302032476666666
1518196813409.0,2.740042116666667,-9.321456916666667,-0.43956604066666666
1518196813611.0,2.80502625,-9.308126849999999,-0.44345398066666664
1518196813811.0,2.873501593333333,-9.31177675,-0.4450408946666666
1518196814013.0,2.929757696666667,-9.315109283333333,-0.4251251233333333
1518196814215.0,2.9911712733333333,-9.29003605,-0.4239349376666667
1518196814416.0,2.9865692233333334,-9.302334649999999,-0.43663025033333325
1518196814617.0,2.9801422233333335,-9.311459383333332,-0.43956604166666663
1518196814818.0,3.009976206666667,-9.332485983333333,-0.49479065166666664
1518196815020.0,2.9976776233333333,-9.314553849999998,-0.5321624766666666
1518196815223.0,2.9545135633333333,-9.347323616666664,-0.555410769
1518196815424.0,2.9123809933333336,-9.346450816666664,-0.5642181416666666
1518196815625.0,2.8620758133333335,-9.353274549999998,-0.5760406516666666
1518196815827.0,2.818276986666667,-9.367477416666667,-0.5850860626666666
1518196816027.0,2.7309967133333335,-9.405642683333333,-0.6188873313333333
1518196816229.0,2.7087799133333337,-9.36517635,-0.675064088
1518196816430.0,2.774478153333334,-9.275674403333333,-0.7378265403333334
1518196816631.0,2.85414124,-9.523074303333335,-0.8257415786666666
1518196816833.0,2.7513092073333336,-9.013912936666667,-0.8969940209999999
1518196817035.0,2.812405400666667,-8.739932210000001,-1.3681488036666667
1518196817237.0,2.861441050666667,-8.297341863333333,-1.1374908429999997
1518196817437.0,3.3095062273333333,-8.557913163333334,-1.3617218003333331
1518196817639.0,3.5851531940000005,-8.36137384,-1.542788690333333
1518196817841.0,3.5663482606666674,-7.927511550000001,-1.4920074403333332
1518196818041.0,3.6330779973333343,-8.424850433333335,-1.561672966333333
1518196818243.0,3.4517730640000006,-7.977102633333333,-1.586270134333333
1518196818444.0,3.486526487333334,-7.84768978,-2.026400735333333
1518196818647.0,3.1926300040000006,-7.263864113333334,-1.85128477
1518196818848.0,4.200399834000001,-8.063351480000001,-1.6835479543333332
1518196819049.0,4.207144217333333,-7.549429363333333,-1.6731536673333331
1518196819250.0,4.255941817333333,-7.262594646666667,-1.893972764
1518196819452.0,3.9234833206666666,-6.698764080000001,-1.6528411713333333
1518196819654.0,4.051229900666667,-6.948623680000001,-1.7525787213333333
1518196819854.0,3.7984344906666663,-6.544595363333333,-1.7794769130000003
1518196820057.0,3.6585480173333327,-6.420022596666667,-2.114712517666667
1518196820258.0,3.1964386506666655,-5.814218163333334,-2.0045806853333334
1518196820460.0,3.9499847773333325,-6.330758696666667,-2.509457408666667
1518196820662.0,3.8865875606666656,-5.680917396666667,-2.5268341173333333
1518196820863.0,4.052261393999999,-5.255624436666666,-2.8710357773333333
1518196821064.0,4.102169840666666,-4.737497003333333,-2.7644745006666667
1518196821266.0,5.225943047333333,-5.335763636666667,-3.0814605906666666
1518196821467.0,5.203488213999999,-4.764395236666667,-3.165249654
1518196821667.0,5.412722827333331,-4.261898903333334,-3.4180450573333334
1518196821869.0,5.495639087333331,-3.6239594699999995,-3.2523712273333327
1518196822070.0,6.505392507333331,-4.333389403333333,-3.793112210666666
1518196822272.0,6.850070240666665,-3.8176423366666654,-3.5115143106666666
1518196822473.0,7.115799000666665,-3.6920380899999996,-3.8857879806666658
1518196822675.0,7.184909100666665,-3.196762223333333,-3.863412493999999
1518196822877.0,7.887197916666667,-4.516916023333334,-4.223245247333332
1518196823079.0,7.713668863333332,-4.4175752,-3.557376114
1518196823279.0,7.8844207966666655,-5.00592358,-3.9718780706666665
1518196823480.0,7.497848540000001,-4.601022446666666,-3.8896759240000005
1518196823683.0,6.478494306666668,-5.778869769999999,-4.074789457333334
1518196823884.0,6.242282146666667,-5.937957906666666,-4.047891264
1518196824086.0,6.0410614423333335,-5.6556458733333335,-4.349484290666667
1518196824286.0,6.2022919089999995,-5.99881604,-4.3265533823333335
1518196824487.0,5.230941809,-7.116360626666667,-4.036544849
1518196824690.0,5.239431792333334,-7.496585226666666,-4.225625659
1518196824891.0,4.285537692333333,-7.215383993333333,-4.582443285666668
1518196825092.0,4.1953216289999995,-7.656784143333334,-4.606485033666667
1518196825294.0,3.6011016623333325,-8.650827126666668,-4.590933267
1518196825495.0,3.708615085666667,-9.131741436666669,-4.912600747
1518196825697.0,3.3175994589999993,-9.027401836666668,-5.533718913666666
1518196825899.0,3.4843047809999987,-9.528231920000001,-5.5679962603333335
1518196826100.0,3.3444976509999984,-9.428573713333334,-5.489126627
1518196826300.0,3.6536285010000005,-10.130624480000002,-5.473416173666665
1518196826502.0,2.9884734876666665,-9.658279480000003,-5.000119040333333
1518196826704.0,2.8490630876666665,-10.244088813333336,-5.019320700333333
1518196826906.0,2.540487644333333,-10.631375190000002,-4.634256002333333
1518196827106.0,2.440750095333333,-11.163150090000002,-4.728439350666667
1518196827308.0,1.2704803053333333,-10.553060956666668,-4.410025037333334
1518196827509.0,1.2441375323,-11.125302156666669,-4.346786510666667
1518196827710.0,1.0289519923000003,-11.629226723333337,-4.093911762
1518196827913.0,0.9199309956333332,-12.316360490000003,-4.261410542
1518196828115.0,-0.040072671033333326,-11.630496223333335,-3.7193206819999998
1518196828316.0,-0.3886383443666666,-12.190359523333335,-3.9544220006666673
1518196828518.0,-0.7338714977000003,-12.41697085,-3.530001844000001
1518196828719.0,-0.890023831033333,-12.657943750000001,-3.4806488156666675
1518196828921.0,-1.5088409643666665,-11.848617583333333,-3.0325042936666673
1518196829120.0,-1.3887115710333333,-12.253836099999997,-3.258004777000001
1518196829321.0,-1.5767608710333338,-12.096652266666666,-3.1005035536666674
1518196829523.0,-1.6192108210333342,-12.230905199999999,-2.9693451036666674
1518196829725.0,-0.8628875877000001,-11.253881866666667,-2.619827277
1518196829926.0,-0.5365387077,-11.451373319999998,-2.715438849
1518196830127.0,-0.43251649003333326,-11.236029086666665,-2.3676666256666667
1518196830329.0,-0.4817108267,-11.36393435333333,-2.370364379666667
1518196830532.0,0.4086273066333334,-10.387466419999997,-2.229684450666666
1518196830732.0,0.6617401066333333,-10.584005719999997,-2.2508697539999996
1518196830935.0,0.5558929433,-10.065005486666667,-2.0882110606666666
1518196831136.0,0.5796966533000001,-10.148001086666666,-2.083926392
1518196831337.0,1.0587860133,-9.455233753333335,-1.9177764920000002
1518196831538.0,1.1891510066333328,-9.546163943333335,-1.8723114053333336
1518196831740.0,1.3425262512999998,-9.402389543333335,-1.1929534920000002
1518196831941.0,1.3119781552999998,-9.312490843333334,-1.179464722
1518196832141.0,1.4850311352999999,-9.54037171666667,-0.9653106653333331
1518196832345.0,1.566757208633333,-9.452059950000002,-1.131857295333333
1518196832545.0,1.443057258633333,-9.391439850000001,-1.108926385333333
1518196832747.0,1.571359258633333,-9.459597816666669,-1.0816314636666666
1518196832949.0,1.679348761966666,-9.47007145,-1.0628265316666665
1518196833149.0,1.7289398276333328,-9.485385183333332,-1.0542571956666666
1518196833352.0,1.806777960966666,-9.475466983333336,-1.052352899
1518196833553.0,1.864224250666666,-9.476419150000002,-1.0414031923333331
1518196833753.0,1.899374397333333,-9.46602485,-1.054733271
1518196833956.0,1.945553597333333,-9.410879583333333,-1.0504486033333331
1518196834158.0,1.9320648306666663,-9.367001416666666,-1.0344207716666665
1518196834359.0,1.948965467333333,-9.378189149999999,-1.0338653519999996
1518196834560.0,1.9287323139999997,-9.376522883333333,-1.0387054409999998
1518196834760.0,1.8882660039999997,-9.365255783333334,-1.0383087126666666
1518196834962.0,1.8834259139999998,-9.354544116666665,-1.0809967013333333
1518196835163.0,1.8416107273333333,-9.32248845,-1.0610015846666665
1518196835366.0,1.781228644,-9.34684758333333,-1.0513214096666665
1518196835568.0,1.731240850666667,-9.372238216666664,-1.0610809316666665
1518196835769.0,1.7032318206666666,-9.370413249999997,-1.058303833
1518196835970.0,1.596987924,-9.394454983333333,-1.0456878663333333
1518196836172.0,1.5765960773333338,-9.401120016666667,-1.0375946029999998
1518196836372.0,1.5917511073333335,-9.38763125,-1.0478301986666667
1518196836574.0,1.583499154,-9.381600983333334,-1.0582244843333333
1518196836776.0,1.5684234706666667,-9.396597316666668,-1.0452911343333333
1518196836977.0,1.574057014,-9.403817783333333,-1.0438629143333333
1518196837179.0,1.5817535473333335,-9.404531883333334,-1.054812621
1518196837380.0,1.6016693173333336,-9.398739616666667,-1.036563111
1518196837581.0,1.6472930973333335,-9.395486416666667,-1.0220428476666668
1518196837783.0,1.7131500326666669,-9.403420983333334,-0.9951446543333332
1518196837985.0,1.775515756666667,-9.40492855,-0.9914947509999998
1518196838186.0,1.8332000833333337,-9.38096615,-1.042037964333333
1518196838388.0,1.9002472033333335,-9.339071616666667,-1.125985721
1518196838589.0,1.9127044766666672,-9.318362383333332,-1.175656131
1518196838791.0,1.90897523,-9.297018383333333,-1.2280242959999998
1518196838991.0,1.969039926666667,-9.313204899999999,-1.2353241009999998
1518196839193.0,2.0241058433333334,-9.296462949999999,-1.218978886
1518196839393.0,2.08440858,-9.304397516666665,-1.2137420693333332
1518196839596.0,2.10210267,-9.298049849999998,-1.2010467573333332
1518196839796.0,2.122732553333333,-9.365176316666668,-1.1163055473333332
1518196839997.0,1.949520883333333,-9.386361616666669,-1.0960723929999998
1518196840199.0,1.8908844083333334,-9.309554983333335,-1.1313018846666667
1518196840401.0,1.8154266436666664,-9.23814385,-1.2242157023333333
1518196840602.0,1.7433013988666666,-9.234970016666667,-1.3641815233333332
1518196840805.0,1.7078338681999998,-9.245602349999999,-1.3463287400000001
1518196841005.0,1.692440801533333,-9.247268616666664,-1.3614837700000002
1518196841207.0,1.6861724915333332,-9.235366749999999,-1.4030609166666668
1518196841409.0,1.7315582348666665,-9.220529116666665,-1.3624359166666669
1518196841609.0,1.6521331858666664,-9.252664116666665,-1.3606903113333335
1518196841812.0,1.6307891891999997,-9.24322198333333,-1.2983245886666668
1518196842012.0,1.5269256625333327,-9.269723449999997,-1.3241119433333337
1518196842215.0,1.549459842533333,-9.12571100333333,-1.4084564300000004
1518196842416.0,1.3312591591999994,-9.102304003333332,-1.4666961753333336
1518196842617.0,1.4165557891999996,-9.05310967,-1.3910797220000002
1518196842819.0,1.407034302533333,-9.032479803333333,-1.3436309903333337
1518196843019.0,1.421792602533333,-9.037795936666663,-1.312210090666667
1518196843222.0,1.4307586691999998,-9.008279336666664,-1.2644439783333339
1518196843423.0,1.3869598408666663,-9.015658503333329,-1.2019989093333339
1518196843625.0,1.407907107533333,-9.047555486666665,-1.1186065760000006
1518196843826.0,1.3641876242,-9.062155086666664,-1.0967071610000005
1518196844026.0,1.3504608175333332,-9.068185386666668,-1.103213507666667
1518196844228.0,1.3725189242,-8.968923896666666,-1.0969451976666664
1518196844429.0,1.2831756608666667,-8.984554996666667,-1.0810760543333333
1518196844632.0,1.3704559342,-9.061520329999999,-1.0256134096666667
1518196844834.0,1.4263153075333332,-9.076516663333331,-1.0149017396666666
1518196845034.0,1.3675994875333335,-9.051364096666665,-0.9841949526666666
1518196845235.0,1.3591094975333335,-9.052792313333331,-0.9858612126666666
1518196845437.0,1.2173187252000002,-9.122775213333332,-0.9626922668333333
1518196845638.0,1.1087738052000002,-9.150625546666664,-0.9950653121666666
1518196845841.0,1.1256744385333335,-9.080721979999998,-1.1614532488333333
1518196846041.0,1.3076934785333336,-9.00296321333333,-1.2649993908333332
1518196846243.0,1.3526824935333335,-9.048745679999998,-1.3110199008333332
1518196846445.0,1.4349639882000003,-9.115078679999998,-1.2215179474999998
1518196846647.0,1.4329803456666668,-9.151419013333332,-1.1047210708333333
1518196846848.0,1.5085174530000003,-9.156338446666664,-1.1220977808333334
1518196847048.0,1.5562835663333332,-9.145468079999999,-1.0432281508333334
1518196847251.0,1.446707153,-9.265914846666664,-1.1305084241666665
1518196847452.0,1.3245147696666664,-9.166494669999999,-1.213742065833333
1518196847652.0,1.3332427969999998,-9.130630403333333,-1.3413299558333331
1518196847854.0,1.3859283436666665,-9.069375516666668,-1.4509063705
1518196848056.0,1.5092315669999996,-9.044857716666668,-1.4530487038333333
1518196848257.0,1.5671539303333333,-9.177126996666665,-1.3372833191666667
1518196848459.0,1.8355804436666665,-9.195297163333334,-1.2713470405
1518196848659.0,1.788607787,-9.244729529999999,-1.3421234071666666
1518196848862.0,1.8597808836666667,-9.24718923,-1.3814788755
1518196849064.0,1.8806488036666664,-9.24837943,-1.4113922051666667
1518196849263.0,1.9242095936666663,-9.275198296666666,-1.4414642275
1518196849465.0,2.0141082753333333,-9.287100163333333,-1.4776458681666667
1518196849668.0,2.0230743353333334,-9.22687678,-1.5450897148333333
1518196849869.0,2.0844879086666666,-9.247744713333335,-1.560086053166667
1518196850071.0,2.173910515333333,-9.223702946666668,-1.509066767166667
1518196850271.0,2.1861297486666667,-9.359542803333333,-1.4261505058333337
1518196850472.0,2.2928497186666665,-9.38271177,-1.3307769725000003
1518196850674.0,2.2622222786666666,-9.300509636666666,-1.3181610055000004
1518196850876.0,2.2968963519999996,-9.294955436666665,-1.270950312166667
1518196851077.0,2.3702117819999997,-9.28511657,-1.3133209175000002
1518196851279.0,2.3641021653333336,-9.27297667,-1.3314117368333336
1518196851480.0,2.495577994333333,-9.194741803333333,-1.3521209660000002
1518196851681.0,2.6506988443333332,-9.155307003333334,-1.3187164260000002
1518196851884.0,2.6630767743333337,-9.153720103333336,-1.2212799036666668
1518196852084.0,2.7110809276666665,-9.195217903333333,-1.136459347
1518196852287.0,2.776937861,-9.214022836666667,-1.0460052436666667
1518196852487.0,2.804788201,-9.199105836666666,-1.030056758
1518196852688.0,2.929043571666667,-9.152926636666667,-0.9929229696666667
1518196852891.0,2.9641143716666667,-9.144198603333333,-0.9849883983333335
1518196853092.0,2.9826812650000005,-9.153244003333334,-1.029580683666667
1518196853294.0,3.157717881666667,-9.035891736666668,-0.8935028036666667
1518196853494.0,3.2891143650000005,-9.129519680000001,-0.8368499723333334
1518196853697.0,3.4173370200000006,-9.112936446666668,-0.6957733123333333
1518196853898.0,3.4516937100000007,-9.1710175,-0.6345977766666666
1518196854099.0,3.5204864366666673,-9.148721333333333,-0.6083343483333332
1518196854301.0,3.4977935666666666,-9.153482083333333,-0.6338836646666667
1518196854501.0,3.5148528933333334,-9.14523015,-0.6257904033333332
1518196854704.0,3.5412750133333333,-9.131265316666667,-0.6098419173333333
1518196854904.0,3.5383392199999997,-9.138327083333333,-0.5999237049999999
1518196855106.0,3.5629363866666663,-9.120950383333332,-0.5784210196666666
1518196855307.0,3.570632919999999,-9.109286549999998,-0.5761993396666667
1518196855508.0,3.585073836666666,-9.079928616666665,-0.5822296133333333
1518196855711.0,3.6160980099999995,-9.100082416666666,-0.578897094
1518196855913.0,3.655136096666666,-9.053347783333333,-0.5701690663333334
1518196856114.0,3.6506133899999993,-9.055410783333333,-0.5723114003333334
1518196856315.0,3.677432239999999,-9.034939583333333,-0.5715972883333335
1518196856517.0,3.6849700833333325,-9.031686383333334,-0.5596160866666667
1518196856717.0,3.681478873333333,-9.042636083333333,-0.5595367416666666
1518196856919.0,3.6839385899999995,-9.040652450000001,-0.5561248756666666
1518196857121.0,3.6752105633333327,-9.0440643,-0.5447784403333332
1518196857322.0,3.7216277966666658,-9.066043066666667,-0.5502532946666666
1518196857524.0,3.729959093333333,-9.064059433333336,-0.5542205793333332
1518196857725.0,3.719406113333333,-9.075247166666669,-0.5681060776666667
1518196857927.0,3.7073455666666666,-9.09087826666667,-0.5806427
1518196858127.0,3.6801299899999997,-9.100558433333337,-0.5880218509999999
1518196858328.0,3.6621978599999996,-9.105874600000002,-0.593734741
1518196858531.0,3.621493516666666,-9.1053192,-0.6017486566666668
1518196858733.0,3.590707383333333,-9.113174433333333,-0.6083343500000001
1518196858934.0,3.558731066666666,-9.121267699999999,-0.6147613513333334
1518196859135.0,3.4990631,-9.091751099999998,-0.6351531960000001
1518196859336.0,3.433840933333333,-9.448251333333333,-0.7591705293333335
1518196859537.0,3.3002227703333333,-9.341610699999999,-0.7808319073333334
1518196859738.0,3.2828460636666668,-9.069058205333333,-0.7047393773333335
1518196859941.0,3.410195920333334,-9.751193205333333,-1.1036895796666666
1518196860143.0,2.978237913666667,-9.272659285333333,-1.0622711226666668
1518196860343.0,2.9704620336666676,-8.938296492000001,-1.1113067676666666
1518196860544.0,2.8709625216666677,-9.378903158666667,-1.303005984333333
1518196860747.0,2.7059234583333334,-9.013912915333334,-1.3967132603333332
1518196860947.0,2.5283477783333335,-9.032797215333334,-1.7638458293333334
1518196861149.0,2.3129241983333335,-8.993917815333337,-1.819387818
1518196861352.0,2.2520660450000003,-8.794522072000003,-1.6632354779999998
1518196861553.0,1.8051117116666668,-9.786779805333332,-1.8750091593333331
1518196861754.0,1.5074859716666666,-9.253497338666667,-1.817324832
1518196861956.0,1.4574188316666672,-8.963330108000001,-2.089639276333333
1518196862157.0,0.999356088333333,-9.352203408,-2.2672943049999996
1518196862357.0,0.8972381683333333,-9.008636507999999,-2.3676666216666664
1518196862560.0,0.37522277499999984,-9.306262241333334,-2.81493835
1518196862762.0,0.18511046833333328,-8.885888698,-2.692269893333333
1518196862963.0,0.09997252833333331,-8.696649191333332,-2.686715694
1518196863164.0,-0.3231781116666666,-9.075366241333334,-3.0702728193333333
1518196863364.0,-0.6581756683333332,-8.643170204666669,-2.989816275
1518196863566.0,-0.7391082816666665,-8.484399454666669,-3.0571014336666664
1518196863768.0,-0.8730438283333333,-8.458612088,-2.9569671586666666
1518196863970.0,-0.961752325,-8.150354031333334,-2.764077752
1518196864171.0,-1.0782318183333333,-8.737988298,-3.082254021
1518196864373.0,-1.0679962216666667,-8.462261973666667,-3.1066924976666663
1518196864574.0,-1.1330596983333332,-8.157812504333334,-2.9281646709999998
1518196864776.0,-1.028244025,-8.848754904333333,-3.1181182893333332
1518196864977.0,-1.2042327949999998,-8.288415551,-3.147476199333333
1518196865177.0,-1.2637420737999998,-8.152972437666667,-2.9753753693333334
1518196865380.0,-1.5361358738,-8.294604504333332,-3.094711309333333
1518196865581.0,-1.6123870941333334,-7.920648204333333,-3.032742314333333
1518196865783.0,-1.668325814133333,-7.964685065666668,-3.1461273243333334
1518196865983.0,-1.9517486674666662,-7.675628665666667,-2.9564910909999997
1518196866185.0,-1.6665802131333327,-7.673803719000001,-2.941494753
1518196866386.0,-1.906997693133333,-7.802661142333334,-2.6047515896666664
1518196866587.0,-2.1524932978,-7.681897009000001,-2.642599489666667
1518196866790.0,-2.188436901133333,-7.645397985666667,-2.4302703863333335
1518196866991.0,-2.4152069211333327,-8.016418485666666,-2.215402223
1518196867193.0,-2.2834930544666663,-8.066247585666668,-2.223812869666666
1518196867394.0,-2.2528656144666663,-7.967382839666667,-2.4462982163333336
1518196867596.0,-2.2618316811333328,-7.801510606333333,-2.6192718496666663
1518196867797.0,-2.1578094577999996,-7.946475206333332,-2.5851531996666655
1518196867998.0,-2.229299935633333,-8.093264757,-2.2188934429999994
1518196868200.0,-1.6611847023000001,-8.065811123666666,-2.2249237163333326
1518196868401.0,-1.670944222966667,-8.349710057000001,-2.0857513513333332
1518196868603.0,-1.1989959696333334,-8.097708123666667,-1.6368927090000003
1518196868804.0,-1.0587921129666669,-8.546487433666666,-1.7570221023333337
1518196869004.0,-1.0710906963000004,-8.760879507,-1.775430305666667
1518196869207.0,-0.7473602229666667,-8.399221773666666,-1.3897308456666668
1518196869409.0,-0.5296356163000001,-8.829037443666666,-1.4816131723333335
1518196869610.0,-0.532492062966667,-9.012564060333334,-1.4055999856666668
1518196869811.0,-0.47504577296666695,-9.044302360333333,-1.4965301590000002
1518196870012.0,-0.4690948453000003,-9.355178817,-1.6891815289999998
1518196870214.0,-0.3885589553,-8.807693483666666,-1.3758453489999998
1518196870414.0,-0.4728240929666667,-9.113015741333333,-1.3567230356666664
1518196870615.0,-0.43775329296666676,-9.428176877333334,-1.5432647789999996
1518196870818.0,-0.5905731163000001,-8.738821394,-1.3615631139999995
1518196871019.0,-0.4587005563000002,-9.301699814000001,-1.3386322073333332
1518196871221.0,-0.41022033083333354,-9.480703727333335,-1.5031158506666664
1518196871422.0,-0.15163268083333328,-8.996853627333333,-1.271267704
1518196871623.0,-0.026028434166666718,-9.494113144000002,-1.3277618456666667
1518196871825.0,-0.0360259941666666,-9.737545777333336,-1.3035614070000001
1518196872026.0,0.04308167250000005,-9.357559210666668,-1.1075775170000002
1518196872229.0,0.10719300149999997,-9.853707877333333,-1.1732757593333334
1518196872430.0,0.2720733714999999,-10.074050897333333,-1.467172242666667
1518196872631.0,0.5393890448333333,-9.771029647333332,-1.2499237093333335
1518196872832.0,0.6571380714999999,-10.190212997333335,-1.3836212193333337
1518196873033.0,0.9846771348333332,-9.814352397333332,-1.244686892666667
1518196873235.0,0.9870575048333331,-9.815621930666666,-1.1931121873333337
1518196873437.0,0.9415130714999997,-10.128164653333332,-1.1386016906666667
1518196873639.0,1.3153900148333333,-9.315664653333336,-0.7675811823333332
1518196873840.0,1.4291717548333334,-9.714376819999998,-0.8691436809999998
1518196874040.0,1.471780396,-9.871878033333333,-0.9764984176666665
1518196874243.0,1.278811646,-9.528390499999999,-0.8044769343333333
1518196874444.0,1.3069000266666668,-9.604483033333333,-0.8528778126666665
1518196874646.0,1.2769073533333335,-9.57187193333333,-0.8673187316666666
1518196874847.0,1.2454864566666668,-9.557430999999998,-0.8851715149999999
1518196875049.0,1.2608001766666668,-9.55068663333333,-0.8879486136666666
1518196875250.0,1.2828582833333333,-9.54925843333333,-0.9042144836666665
1518196875451.0,1.2891265966666665,-9.547830199999996,-0.8940582326666665
1518196875652.0,1.296029673333333,-9.543148799999997,-0.9094512993333332
1518196875854.0,1.3056305033333333,-9.546560666666666,-0.9224639959999998
1518196876055.0,1.3220550656666663,-9.541323866666666,-0.9157196093333332
1518196876257.0,1.3052337756666663,-9.506411766666666,-0.914053349333333
1518196876458.0,1.3168182466666662,-9.488955733333333,-0.9115142859999997
1518196876659.0,1.3073761066666665,-9.488003566666666,-0.9083404576666664
1518196876860.0,1.3123748866666665,-9.494271883333333,-0.9099273726666663
1518196877062.0,1.3134063799999998,-9.496017483333333,-0.902389529333333
1518196877264.0,1.3097564766666663,-9.49490665,-0.9007232693333331
1518196877466.0,1.314993293333333,-9.495620783333335,-0.9040557893333331
1518196877667.0,1.3201507666666665,-9.494668633333335,-0.9017547626666664
1518196877869.0,1.3249908533333332,-9.493875166666667,-0.9019927996666665
1518196878070.0,1.3253875799999997,-9.493161066666666,-0.9022308363333332
1518196878270.0,1.3268158033333335,-9.490701366666666,-0.9084991473333331
1518196878472.0,1.3305450533333332,-9.492129599999998,-0.9094512956666665
1518196878673.0,1.33205262,-9.488876416666667,-0.9161163356666665
1518196878876.0,1.3371307433333335,-9.489114466666667,-0.9185760533333331
1518196879077.0,1.3405426066666666,-9.4865754,-0.9253997833333332
1518196879278.0,1.3460174599999997,-9.4871308,-0.9320648219999998
1518196879479.0,1.3491912866666664,-9.489590533333331,-0.9322235119999998
1518196879680.0,1.353872683333333,-9.490939433333335,-0.9337310803333331
1518196879883.0,1.356094363333333,-9.492446999999999,-0.9459503183333331
1518196880084.0,1.3613311799999999,-9.490939433333333,-0.9525360116666665
1518196880285.0,1.2989654586666666,-9.551718233333332,-0.9762603749999997
1518196880486.0,1.3364166286666663,-9.334469686666665,-1.0523529049999998
1518196880687.0,1.4379791286666663,-9.297970653333334,-1.3794952449999998
1518196880891.0,1.4255218519999997,-8.77547920333333,-1.2988800116666666
1518196881092.0,2.0367217953333334,-9.363906936666664,-1.6118194583333332
1518196881293.0,2.0368011386666662,-8.867678903333331,-1.3224456816666665
1518196881494.0,2.159786975333333,-8.81308907,-1.6741851693333332
1518196881696.0,2.223342882,-8.503402788,-1.3682281226666664
1518196881896.0,2.651650982,-9.127218688000001,-1.3528350559999998
1518196882098.0,2.3390289153333335,-8.813803152666667,-1.3374419899999999
1518196882299.0,2.566036985333333,-9.105001886,-1.69973448
1518196882500.0,2.630227662,-8.674630779333334,-1.6084869233333334
1518196882703.0,3.1664459220000003,-9.329550212666668,-1.4339263750000002
1518196882904.0,3.1784271219999995,-8.927822912666668,-1.197634871666667
1518196883106.0,3.3263275119999998,-8.916397146000001,-1.5632598883333335
1518196883306.0,3.509060665333333,-8.6002838496,-1.6522064216666668
1518196883507.0,3.3238677986666665,-9.048745749599998,-1.9071441683333334
1518196883710.0,3.105587768666666,-8.7619903796,-1.744247441666667
1518196883912.0,3.2477752686666665,-9.072073379599999,-2.1551788333333333
1518196884113.0,3.458438111999999,-8.848159802933335,-2.2498382533333334
1518196884315.0,2.762576305333333,-9.827484169599998,-3.2294403000000003
1518196884516.0,2.748452768666666,-9.446783472933332,-3.109310905
1518196884717.0,2.8729461786666666,-9.691564972933334,-3.542538431666667
1518196884919.0,3.0849578986666666,-9.384497089599998,-3.3171966339999996
1518196885120.0,3.5178680553333335,-9.942535422933332,-3.3560760273333328
1518196885321.0,3.1525604453333336,-9.478997839599998,-3.319180275666666
1518196885523.0,3.400753792,-9.267938256266667,-3.847543302333333
1518196885725.0,3.4359039386666663,-9.009350596266666,-4.136202958999999
1518196885925.0,4.060830695333333,-9.5844482296,-4.007345538999999
1518196886127.0,3.922293098666667,-9.1460632296,-3.9122100389999996
1518196886329.0,4.186514286666667,-8.972930906266667,-4.224197339
1518196886530.0,4.136209111000001,-8.7113281196,-4.099624585666667
1518196886731.0,4.5984771643333335,-9.4355957196,-4.149929752333334
1518196886933.0,4.508181754333334,-9.638006606933333,-4.112319889
1518196887133.0,4.085507201000001,-9.260559106933334,-4.119619689
1518196887335.0,4.275302124333334,-9.520733660266668,-4.419149715666667
1518196887536.0,4.205715944333334,-10.3470397936,-5.319207715666668
1518196887739.0,3.7283721876666664,-10.534057608933335,-5.6930846823333345
1518196887939.0,3.627999887666667,-9.855651858933335,-6.196453812333335
1518196888142.0,4.100662234333333,-10.281658927599999,-6.249060011666669
1518196888342.0,3.6084014776666664,-10.812322960933333,-5.715856878333334
1518196888543.0,3.5257232543333332,-11.010052450933333,-5.621832218333332
1518196888746.0,2.7599578776666673,-10.639587384266664,-6.134802185000001
1518196888947.0,2.7276641776666675,-11.053137184266664,-6.475036558333334
1518196889149.0,1.5787383876666667,-11.693218950933332,-6.153607098333332
1518196889349.0,1.1629669076666667,-12.101611280666665,-5.9680174983333325
1518196889552.0,1.336416607666667,-11.987432813999998,-6.514788765
1518196889753.0,1.536843853,-12.330047550666665,-6.6770507263333325
1518196889955.0,1.1782806196666664,-11.87269891733333,-6.558508259666667
1518196890156.0,1.1158355496666672,-12.183337343999998,-6.647375449666667
1518196890358.0,1.868905606333334,-11.328585710666667,-6.111791949666667
1518196890559.0,1.9680877363333338,-11.718252474,-6.405767779666667
1518196890761.0,1.6770476963333336,-11.061270054,-5.965716522000001
1518196890962.0,1.4652740130000002,-11.237734904,-6.361651582
1518196891162.0,1.2119231830000003,-10.664938270666667,-6.367047092000001
1518196891364.0,1.6938689830000007,-11.111733920666667,-6.440600560333334
1518196891566.0,1.589846783,-11.224008090666667,-5.961035140333335
1518196891768.0,1.717672713,-11.422769077333331,-5.706335443666668
1518196891969.0,1.2381866296666668,-10.754916310666662,-5.881610100333335
1518196892169.0,1.5389861896666668,-11.129507377333331,-5.986029047000002
1518196892371.0,1.4732879563333339,-11.199887000666664,-5.679913330333335
1518196892572.0,1.6295196386666673,-11.603518600666666,-5.749499510333334
1518196892774.0,1.230966182,-10.835055467333332,-5.377288820333334
1518196892975.0,1.5028045620000003,-11.083645556666667,-5.4902771003333335
1518196893178.0,1.4875701820000002,-10.804507356666665,-5.187097180333334
1518196893379.0,1.4703521686666667,-10.968118203333331,-5.182336437000001
1518196893581.0,1.592782582,-10.12324518,-3.9390289403333325
1518196893781.0,2.176449582,-10.177120913333335,-3.8733307003333324
1518196893983.0,2.0160919053333335,-10.169979796666667,-3.382656881999999
1518196894185.0,2.023709092,-9.99327693,-3.3529815919999995
1518196894385.0,2.457333362,-9.107064786666667,-3.520956443333333
1518196894586.0,2.645779402,-9.274801603333334,-3.706704734666666
1518196894789.0,3.0491729553333338,-8.92425228,-3.3640899946666663
1518196894991.0,3.2365875053333335,-8.847683680000001,-3.2557831099999994
1518196895192.0,4.409317005333334,-8.153170746666666,-3.2088897999999997
1518196895393.0,4.806997672000001,-8.003683446666667,-3.3071991266666663
1518196895595.0,4.983065788666668,-7.60251158,-2.500650026666666
1518196895795.0,5.165084830000001,-7.484603879999999,-2.4951751729999994
1518196895998.0,5.549118030000002,-7.571011356666666,-2.207308952999999
1518196896199.0,5.567922963333334,-7.422634893333332,-2.017672723
1518196896401.0,5.681863393333335,-7.236648579999999,-1.5706390396666667
1518196896602.0,5.764382923333335,-7.16436463,-1.398855593
1518196896802.0,6.0973174933333345,-7.51578675,-1.4040924093333333
1518196897003.0,6.2669586000000015,-7.578311149999999,-1.2336578393333335
1518196897206.0,6.255770856666667,-7.525863649999999,-1.1851776126666669
1518196897407.0,6.308377056666668,-7.474685683333332,-1.1461395260000002
1518196897608.0,6.33345029,-7.50721742,-1.0967071543333335
1518196897810.0,6.337814306666666,-7.502377326666667,-1.0641754176666667
1518196898011.0,6.361300633333333,-7.5306243933333326,-1.0122833276666667
1518196898213.0,6.3666167966666665,-7.527847293333333,-1.0007782010000001
1518196898414.0,6.404782073333333,-7.496743793333333,-0.975308231
1518196898617.0,6.4249358899999995,-7.514041159999999,-0.9665008576666665
1518196898818.0,6.425808693333333,-7.531259169999999,-0.9665008576666666
1518196899018.0,6.423269629999999,-7.540780653333332,-0.9689605743333332
1518196899221.0,6.415731796666666,-7.545382709999998,-0.9569793743333332
1518196899422.0,6.413986186666666,-7.548715223333332,-0.9488067676666666
1518196899624.0,6.405496203333332,-7.561648569999998,-0.9438079876666666
1518196899824.0,6.392404169999998,-7.573391736666666,-0.9398407023333333
1518196900025.0,6.392642213333334,-7.57323305,-0.9371429483333333
1518196900226.0,6.396371463333333,-7.5695038,-0.9321441683333332
1518196900430.0,6.400814816666665,-7.568869033333332,-0.9319061313333333
1518196900631.0,6.4040679933333315,-7.570297256666667,-0.9301605266666667
1518196900832.0,6.405020143333331,-7.567123430000001,-0.92674866
1518196901033.0,6.408670053333332,-7.561965963333335,-0.9354766880000001
1518196901235.0,6.396530163333332,-7.55323794,-0.9199249303333333
1518196901437.0,6.418429569999999,-7.526419093333335,-0.9201629670000001
1518196901638.0,6.445407109999999,-7.504043603333335,-0.8947723413333333
1518196901839.0,6.527688589999999,-7.439773580000001,-0.8412933370000001
1518196902040.0,6.446041866666666,-7.499520903333335,-0.790512087
1518196902242.0,6.394705196666665,-7.465164216666667,-0.8128875769999999
1518196902443.0,6.352969356666666,-7.448580963333334,-0.8988189736666664
1518196902644.0,6.375265499999999,-7.391610746666667,-0.9901458769999999
1518196902846.0,6.3688385,-7.467147846666667,-0.9225433383333332
1518196903047.0,6.475082400000001,-7.4160492200000006,-0.8548614516666667
1518196903248.0,6.493093873333333,-7.398672506666667,-0.7973358183333332
1518196903451.0,6.377169796666667,-7.5069000400000006,-0.8009063749999998
1518196903652.0,6.4035125766666665,-7.440090956666667,-0.8477996866666667
1518196903854.0,6.422714233333333,-7.398513813333334,-0.9273040799999999
1518196904054.0,6.427871703333334,-7.345114156666668,-1.0316436833333333
1518196904255.0,6.319961546666668,-7.459213256666668,-1.0999603333333334
1518196904457.0,6.334402470000001,-7.438186643333333,-1.0624298153333336
1518196904658.0,6.369393920000001,-7.408749376666667,-1.0436248853333334
1518196904861.0,6.366458130000001,-7.4058135866666674,-1.0590972953333333
1518196905063.0,6.373043823333333,-7.41057433,-1.000064092
1518196905264.0,6.42644348,-7.466116306666667,-0.9807037396666668
1518196905465.0,6.3408294666666665,-7.539511093333333,-0.9158782996666667
1518196905667.0,6.411764516666666,-7.50943907,-0.962930303
1518196905868.0,6.451516706666665,-7.327658070000001,-0.9898284950000001
1518196906070.0,6.4208099066666655,-7.4415984900000005,-0.9792755173333334
1518196906270.0,6.508407556666665,-7.41335142,-0.9074676539999998
1518196906472.0,6.529751556666665,-7.36598203,-0.8504180929999998
1518196906674.0,6.559902926666665,-7.333132906666667,-0.7984466563333332
1518196906875.0,6.580532806666665,-7.313534523333334,-0.7696441669999999
1518196907076.0,6.522769126666664,-7.349319423333334,-0.7045013436666665
1518196907278.0,6.556094316666665,-7.361300626666668,-0.7259246836666666
1518196907478.0,6.527450519999999,-7.423745706666667,-0.7814666769999997
1518196907680.0,6.435726886666665,-7.292825296666667,-0.863034059333333
1518196907882.0,6.355111666666666,-7.443661486666668,-1.1263031059999997
1518196908083.0,6.541812106666666,-7.284255953333334,-1.230960089333333
1518196908284.0,6.619888276666667,-7.302108733333334,-1.2177093559999996
1518196908485.0,6.659640473333334,-7.3267059,-1.1212249793333329
1518196908687.0,6.67130429,-7.3744720133333335,-0.9767364546666668
1518196908890.0,6.685507176666667,-7.34400328,-0.9480133113333333
1518196909090.0,6.493331886666667,-7.4518341066666665,-0.9769744939999999
1518196909291.0,6.442709330000001,-7.442153930000001,-0.996176153333333
1518196909493.0,6.521896340000001,-7.346066283333333,-1.0341034
1518196909695.0,6.473733493333334,-7.387246709999999,-1.0510040333333337
1518196909897.0,6.478335536666668,-7.381930553333333,-1.0504486133333337
1518196910097.0,6.387960783333336,-7.504519676666666,-0.8734283466666669
1518196910298.0,6.4711944300000015,-7.424221843333332,-0.7411590600000002
1518196910500.0,6.463259863333335,-7.433981366666665,-0.7428253196666669
1518196910703.0,6.452786230000002,-7.459371999999998,-0.7102142353333336
1518196910904.0,6.36804502,-7.4649261966666645,-0.6624481230000002
1518196911105.0,6.384152196666668,-7.435488943333333,-0.7735321096666669
1518196911307.0,6.314248630000002,-7.339480656666666,-0.8189971986666669
1518196911507.0,6.401528903333333,-7.287191823333332,-0.956265262
1518196911709.0,6.383041369999999,-7.282193046666666,-0.9088165286666667
1518196911911.0,6.343051136666666,-7.483175713333333,-0.8950103786666667
1518196912113.0,6.3657440166666674,-7.385739213333332,-0.9198455819999999
1518196912314.0,6.278225716666665,-7.414065633333332,-0.9853851343333334
1518196912514.0,6.252200323333333,-7.46484689,-1.028628543
1518196912717.0,6.212527476666666,-7.507217499999999,-1.0863922163333335
1518196912917.0,6.198403936666667,-7.533480923333332,-1.1228912390000003
1518196913119.0,6.248550416666666,-7.515152073333333,-1.1638336223333337
1518196913320.0,6.221017463333334,-7.5158661833333325,-1.1485199016666667
1518196913522.0,6.221334853333333,-7.481509483333332,-1.073855595
1518196913723.0,6.282272353333332,-7.645755083333332,-1.0104583783333334
1518196913925.0,6.290921040000001,-7.5562531166666655,-0.7962249766666666
1518196914126.0,6.190786756666666,-7.654800483333332,-0.7264801033333335
1518196914328.0,6.161508193333335,-7.673208686666666,-0.7004547123333333
1518196914529.0,6.1681732333333334,-7.660275339999999,-0.6773651136666666
1518196914731.0,6.1284210366666665,-7.678604193333332,-0.7013275161666667
1518196914933.0,6.11183777,-7.641946469999999,-0.7677398681666668
1518196915134.0,6.188088993333333,-7.5962433366666655,-0.7834503175
1518196915336.0,6.2164947533333335,-7.632980393333333,-0.7988433838333333
1518196915537.0,6.241091920000001,-7.6363129066666655,-0.7329864488333335
1518196915738.0,6.25497742,-7.667654453333332,-0.6463409415000002
1518196915940.0,6.225778206666667,-7.720260653333332,-0.5386688231666668
1518196916141.0,6.305996713333334,-7.654324363333333,-0.5869110098333334
1518196916343.0,6.328054813333334,-7.627108783333333,-0.6234100328333335
1518196916544.0,6.314169313333333,-7.650753806666666,-0.6350738511666667
1518196916746.0,6.303060913333334,-7.650515763333332,-0.6545928941666667
1518196916947.0,6.392324833333334,-7.6525787466666655,-0.6554656968333332
1518196917149.0,6.372488413333334,-7.679953013333332,-0.5777069061666666
1518196917350.0,6.391452036666667,-7.726052866666665,-0.5205779988333332
1518196917551.0,6.383834853333334,-7.715341199999998,-0.4232208248333333
1518196917753.0,6.328768926666667,-7.75247499,-0.39695739849999995
1518196917954.0,6.3328155566666675,-7.735495006666666,-0.3568878174999999
1518196918156.0,6.338607793333335,-7.7236724799999985,-0.3185638438333333
1518196918357.0,6.3350372266666675,-7.73009948,-0.30063171483333334
1518196918557.0,6.333847043333335,-7.733987423333332,-0.2919830331666667
1518196918759.0,6.339639276666667,-7.727639766666666,-0.2615142821666666
1518196918961.0,6.324880976666668,-7.729702753333332,-0.23533020083333328
1518196919163.0,6.327578743333334,-7.721530146666666,-0.23255310083333328
1518196919364.0,6.328689583333334,-7.726052856666666,-0.22215881349999997
1518196919566.0,6.33614807,-7.722561643333333,-0.21335143996666664
1518196919767.0,6.339559933333334,-7.717880243333333,-0.1993865966333333
1518196919969.0,6.331387323333334,-7.725894163333332,-0.1832794189666666
1518196920170.0,6.325436400000001,-7.728115846666667,-0.1726470943
1518196920371.0,6.325912473333333,-7.7310516300000005,-0.1681243893
1518196920573.0,6.320358273333334,-7.7379547099999995,-0.1763763423
1518196920774.0,6.320675653333334,-7.7356536899999995,-0.18312072713333333
1518196920976.0,6.324642953333335,-7.733352666666667,-0.1864532464666667
1518196921177.0,6.331466686666668,-7.729544066666666,-0.17978820730000003
1518196921379.0,6.330276500000001,-7.727401733333333,-0.17423400810000003
1518196921579.0,6.337020886666668,-7.721133433333334,-0.1693939201
1518196921782.0,6.3424163966666685,-7.721530163333334,-0.16606140056666668
1518196921983.0,6.34662172,-7.717800909999999,-0.16907653723333335
1518196922184.0,6.347653213333333,-7.719149786666667,-0.16376037523333337
1518196922385.0,6.3429718133333335,-7.727481086666667,-0.16875915456666668
1518196922587.0,6.352969366666668,-7.72478332,-0.15701599056666668
1518196922787.0,6.3524139533333335,-7.72557678,-0.16455383256666667
1518196922990.0,6.354318243333332,-7.72644959,-0.1730438229
1518196923192.0,6.28846131,-7.710580446666667,-0.2503265369
1518196923393.0,6.424935929999999,-7.881253046666666,-0.4273467942333333
1518196923593.0,6.262991346666666,-7.784768670000001,-0.47416075823333337
1518196923796.0,6.1096954499999985,-7.562203973333333,-0.46455992823333336
1518196923997.0,6.163571183333333,-7.821108990000001,-0.7901153592333333
1518196924197.0,5.901333633333333,-7.5317352123333325,-0.8456573529
1518196924400.0,6.871572899999999,-8.469918812333333,-0.9661834762333333
1518196924602.0,6.31988221,-8.175704939,-1.0356903125666665
1518196924802.0,5.96933289,-8.427786252333334,-1.4004425102333333
1518196925003.0,5.999246223333333,-8.398348995666668,-1.5302520815666667
1518196925205.0,5.867929076666666,-8.115243527333336,-1.4558258115666665
1518196925408.0,6.313137823333333,-8.853396594000001,-1.4122650205666665
1518196925609.0,5.94283143,-8.443496690666667,-1.3316497874333333
1518196925810.0,5.769778453333333,-9.216006457333332,-1.6701385574333332
1518196926010.0,5.645205696666666,-9.196328723999997,-1.7640838701
1518196926213.0,5.445651254333334,-9.022561633999997,-1.8020111147666666
1518196926414.0,5.8723724310000005,-9.948605333999996,-1.7667022774333334
1518196926616.0,5.523330681,-9.58670957733333,-1.7131439264333332
1518196926817.0,5.578396601,-9.999307230666663,-1.9391204937666666
1518196927018.0,5.394155870999999,-9.836410500666664,-1.9680023291
1518196927219.0,5.266012554333333,-9.763412453999997,-2.0367950529333334
1518196927422.0,5.297195421,-10.643197553999997,-2.2613433931333335
1518196927623.0,5.0253570409999995,-10.216476353999997,-2.220321666133333
1518196927824.0,4.650289897666666,-10.933444110666665,-2.0139434929999998
1518196928025.0,4.427963237666666,-10.762216083999999,-2.0060089227333333
1518196928227.0,4.2402313026666665,-10.659463397333333,-2.0171173214
1518196928429.0,4.029806502666666,-10.902419944,-2.0397308467333337
1518196928630.0,3.811447127,-10.406509310666666,-2.0193390007333334
1518196928832.0,3.4677215403333332,-11.410311860666667,-2.2466644434
1518196929032.0,3.183425887,-11.112844817333334,-2.1612884660666665
1518196929234.0,2.968319680333333,-11.059841894,-2.104238906066666
1518196929435.0,2.6150726006666662,-10.924874860666668,-1.9507049760666666
1518196929637.0,2.6363372506666667,-10.673666367333334,-1.8350982860666667
1518196929839.0,2.3495025406666668,-11.544485450666667,-2.020449849066667
1518196930039.0,1.9352386206666665,-10.761740100666666,-1.7498016457333334
1518196930242.0,1.9104034139999997,-10.893057238333332,-1.727029429066667
1518196930443.0,0.7611602473333327,-9.888937355,-1.6331634624000002
1518196930644.0,1.2664337006666662,-9.881161478333333,-1.4999420257333336
1518196930846.0,1.2624664206666663,-10.054531811666665,-1.3213348424
1518196931048.0,0.962936394,-9.422146558333333,-1.4051239024
1518196931249.0,0.6033416739999995,-10.506405583333333,-1.7839202824
1518196931450.0,-0.1255279593333335,-9.479830880000002,-1.7382965024
1518196931652.0,0.01102599399999998,-9.893142650000001,-2.0471893224
1518196931852.0,-0.14607849933333342,-9.426589916666664,-1.7801910323999999
1518196932054.0,-0.3058013993333335,-8.814675863333333,-1.6482391277333333
1518196932257.0,-0.19543152700000013,-9.942575036666666,-1.4520172010666665
1518196932458.0,-0.9102569503333335,-8.699148529999997,-1.4095672510666666
1518196932658.0,-0.8250396636666668,-9.170938086666665,-1.8326385443999997
1518196932860.0,-1.1236175436666669,-8.892514019999998,-1.6639495744
1518196933062.0,-1.190109243666667,-8.46309506333333,-1.5017669577333332
1518196933263.0,-0.9098602269999998,-9.34414974333333,-1.449319448733333
1518196933464.0,-1.1776519790000002,-8.111514309999999,-1.048068228733333
1518196933665.0,-1.122427368,-8.703274576666665,-1.0667938130666663
1518196933867.0,-1.0017425480000002,-7.531576593333333,-1.1666107063999995
1518196934069.0,-0.28715516466666635,-8.49919744,-1.3019744749999997
1518196934269.0,-0.2754119996666666,-8.581558273333332,-1.269204699333333
1518196934471.0,-0.28755189200000003,-8.405569506666668,-1.2730132916666665
1518196934672.0,-0.2814422730000002,-8.940121506666667,-1.3395049916666666
1518196934875.0,-0.1129119996666666,-8.005984473333335,-1.119003279333333
1518196935076.0,0.019595323666666692,-8.345425406666667,-1.2430206126666663
1518196935278.0,0.10520933833333346,-8.435006706666668,-1.2294524976666665
1518196935478.0,0.15614928133333364,-8.433340439999998,-1.176528914333333
1518196935679.0,0.08100889733333348,-8.95115051,-1.1265411243333332
1518196935881.0,0.8403472640000001,-8.304721076666665,-0.8562896576666665
1518196936083.0,1.0402984373333333,-8.6191681,-0.709579451
1518196936285.0,1.1821685573333331,-8.520858774666667,-0.3833892609999997
1518196936485.0,1.4196502573333334,-8.273300181333335,-0.1008392143333331
1518196936687.0,1.4275054806666667,-8.195700081333335,0.09625551233333346
1518196936888.0,1.7429839906666669,-7.392642231333333,0.5400360256666668
1518196937090.0,1.9737212940000002,-7.676699848000001,1.0129364156666665
1518196937292.0,2.423056004,-6.497781397999999,1.5822418289999998
1518196937493.0,2.666250580666667,-6.406613184666666,1.751882942333333
1518196937693.0,2.860806244,-6.026229881333333,2.238272102333333
1518196937896.0,3.1517669373333335,-5.343380764666666,2.5708892923333333
1518196938098.0,3.394723480666667,-5.595858781333334,2.7920257676666664
1518196938299.0,3.443283050666667,-4.264993298,2.8960479809999997
1518196938499.0,3.691317717333334,-4.202706921333334,3.077432261
1518196938700.0,3.913406340666667,-3.716000371333334,3.706326307666666
1518196938903.0,4.121688810666667,-3.200411988,4.0256134176666665
1518196939105.0,4.333621184,-3.4129791380000007,4.152487197666667
1518196939305.0,4.1412078606666665,-2.2285064880000007,4.425595108666666
1518196939507.0,4.336398289333333,-2.205337538000001,4.507003802
1518196939708.0,4.513180515,-1.662850954666668,4.741946429666666
