Time,AccelX,AccelY,AccelZ
1518196688317.00 ,0.8002777,3.506363,9.204269
1518196688519.00 ,0.86216736,3.5492096,9.601791
1518196688720.00 ,0.7931366,3.4897003,9.887436
1518196688922.00 ,0.96214294,3.558731,9.528
1518196689124.00 ,0.9478607,3.4825592,9.6089325
1518196689325.00 ,0.86216736,3.282608,9.689865
1518196689526.00 ,0.32182312,2.3637848,9.382797
1518196689728.00 ,1.8833466,3.308792,9.394699
1518196689929.00 ,1.5429535,3.7991486,9.275681
1518196690130.00 ,2.1594696,3.4611359,10.368271
1518196690332.00 ,3.259201,4.2990265,7.483261
1518196690533.00 ,4.9611664,-2.1493988,3.5032806
1518196690734.00 ,9.933762,-6.762558,2.6154022
1518196690936.00 ,6.6488495,-0.22129822,-5.5730743
1518196691137.00 ,9.222031,-27.636032,2.1869354
1518196691339.00 ,0.6836395,-2.3207855,2.3583221
1518196691540.00 ,13.725693,-18.504929,17.16661
1518196691742.00 ,-2.463211,2.487564,-2.9380035
1518196691943.00 ,10.269394,-16.938644,0.33738708
1518196692145.00 ,-0.20185852,3.1564484,-0.08869934
1518196692346.00 ,9.341049,-9.778488,-9.831558
1518196692547.00 ,-1.7276764,-2.8873138,1.806076
1518196692749.00 ,5.3420258,-8.293137,0.7658539
1518196692950.00 ,9.955185,-12.668259,-11.150284
1518196693152.00 ,4.6683807,-0.33317566,5.1504974
1518196693353.00 ,13.732834,-36.952805,-14.287613
1518196693556.00 ,-9.004471,3.7777252,1.2919159
1518196693756.00 ,17.42717,-1.2853241,-7.7415924
1518196693958.00 ,-3.3391876,4.239517,7.526108
1518196694159.00 ,20.845383,-20.11168,-0.64808655
1518196694360.00 ,-13.122513,1.7401276,-0.026809692
1518196694563.00 ,4.2113495,-10.316452,-10.9622345
1518196694765.00 ,-0.29707336,3.0564728,1.1467133
1518196694966.00 ,8.757858,-15.779404,-7.7868195
1518196695166.00 ,-3.3772736,-2.8420868,-0.96943665
1518196695369.00 ,-1.8490753,-6.910141,0.21836853
1518196695571.00 ,-0.104263306,-6.910141,0.16123962
1518196695772.00 ,3.7305145,-13.334763,-16.039566
1518196695973.00 ,4.066147,-4.7011566,-1.9311066
1518196696174.00 ,-6.9811554,-30.233017,-5.8634796
1518196696376.00 ,3.599594,1.8758087,3.6175385
1518196696578.00 ,17.467636,-9.426193,-7.110794
1518196696778.00 ,2.4974823,0.45472717,-2.1429596
1518196696980.00 ,27.072433,-22.851486,9.97551
1518196697182.00 ,-13.034439,2.3923492,-12.349991
1518196697383.00 ,15.806137,-18.19072,-11.107437
1518196697584.00 ,-2.9131012,2.101944,1.2657318
1518196697786.00 ,30.785812,-18.312119,-4.0329742
1518196697988.00 ,-6.143265,1.4378204,0.67063904
1518196698189.00 ,4.530319,-6.8744354,-9.067459
1518196698391.00 ,-5.041153,7.4173126,-1.3669586
1518196698592.00 ,2.2427826,-14.558273,-9.424515
1518196698793.00 ,-4.2675323,-1.6423798,7.9355316
1518196698994.00 ,6.691696,-10.297409,-7.860611
1518196699195.00 ,-8.204666,-0.30223083,-3.1831818
1518196699396.00 ,5.0516205,-13.618027,-3.1927032
1518196699598.00 ,-2.7726593,-1.4876556,7.764145
1518196699801.00 ,5.594345,-8.902512,-1.3098297
1518196700002.00 ,-3.5177155,-0.1903534,2.4630585
1518196700203.00 ,-5.003067,-13.698959,-4.242447
1518196700405.00 ,-5.8266754,-4.0846405,-4.525711
1518196700606.00 ,3.8995209,-11.739914,-8.648514
1518196700808.00 ,-4.3841705,-6.146042,-9.822037
1518196701008.00 ,3.9566498,-8.319321,2.7986908
1518196701210.00 ,9.541,-8.733505,2.2583466
1518196701412.00 ,1.8643036,-8.238388,-0.6504669
1518196701612.00 ,5.787155,-7.5290375,-2.2072296
1518196701814.00 ,4.0899506,-9.138168,-2.100113
1518196702015.00 ,3.4853363,-9.34288,-1.3574371
1518196702218.00 ,4.1327972,-8.852524,-0.93611145
1518196702418.00 ,4.232773,-9.076279,-1.5121613
1518196702621.00 ,3.9661713,-8.923935,-0.8837433
1518196702822.00 ,4.0137787,-8.795395,-0.9575348
1518196703023.00 ,4.425583,-9.426193,-0.5219269
1518196703224.00 ,4.304184,-8.714462,-1.2812653
1518196703425.00 ,3.335373,-8.95488,-1.766861
1518196703626.00 ,3.7566986,-8.823959,-1.3264923
1518196703828.00 ,3.8519135,-8.693039,-1.600235
1518196704030.00 ,3.5686493,-8.928696,-1.6764069
1518196704231.00 ,3.5757904,-8.82872,-1.683548
1518196704434.00 ,4.066147,-8.666855,-1.581192
1518196704635.00 ,3.823349,-8.862045,-1.766861
1518196704835.00 ,3.785263,-8.671616,-1.6764069
1518196705036.00 ,3.8090668,-8.940598,-1.5121613
1518196705239.00 ,3.6638641,-8.814438,-1.5692902
1518196705440.00 ,3.8185883,-8.823959,-1.6287994
1518196705642.00 ,3.7447968,-8.76445,-1.7454376
1518196705844.00 ,3.7495575,-8.89299,-1.7049713
1518196706045.00 ,3.842392,-8.550217,-2.1096344
1518196706247.00 ,3.4996185,-8.919174,-1.7716217
1518196706447.00 ,3.482956,-8.654953,-2.0406036
1518196706648.00 ,3.842392,-8.70018,-1.5740509
1518196706851.00 ,3.5948334,-8.864426,-1.5669098
1518196707053.00 ,3.6614838,-8.89061,-1.6335602
1518196707253.00 ,3.9590302,-8.873947,-1.4954987
1518196707455.00 ,3.7543182,-8.942978,-1.4931183
1518196707657.00 ,4.0113983,-8.70256,-1.5288239
1518196707858.00 ,3.70195,-9.012009,-1.3836212
1518196708060.00 ,3.720993,-8.847763,-1.4835968
1518196708260.00 ,4.0256805,-8.969162,-1.4883575
1518196708461.00 ,3.1711273,-9.028671,-1.1741486
1518196708663.00 ,3.2663422,-9.14769,-0.9980011
1518196708864.00 ,3.3472748,-9.2548065,-0.9051666
1518196709065.00 ,3.5186615,-8.978683,-1.1860504
1518196709266.00 ,3.3282318,-8.907272,-0.80281067
1518196709468.00 ,3.3567963,-9.5047455,-0.9884796
1518196709671.00 ,2.373703,-9.34288,-1.2384186
1518196709872.00 ,1.4120331,-9.497604,-1.3860016
1518196710074.00 ,1.8952484,-9.5952,-1.3836212
1518196710275.00 ,2.2213593,-9.40239,-1.4764557
1518196710476.00 ,2.6260223,-9.192917,-1.535965
1518196710678.00 ,2.5070038,-9.295273,-1.369339
1518196710880.00 ,2.668869,-9.131027,-1.516922
1518196711080.00 ,2.5736542,-9.157211,-1.619278
1518196711283.00 ,2.5546112,-9.228622,-1.4907379
1518196711483.00 ,2.5712738,-9.092941,-1.6049957
1518196711684.00 ,2.6212616,-9.069138,-1.478836
1518196711887.00 ,2.41893,-9.123886,-1.619278
1518196712087.00 ,2.7045746,-9.252426,-1.6407013
1518196712289.00 ,2.7878876,-8.554977,-2.3476715
1518196712490.00 ,2.5308075,-6.2007904,-3.6449738
1518196712692.00 ,3.6781464,-6.4911957,-5.8753815
1518196712894.00 ,2.3522797,-7.7789764,-4.1996
1518196713095.00 ,2.6165009,-13.9608,-2.5333405
1518196713297.00 ,3.9804535,-10.533066,0.542099
1518196713497.00 ,3.1378021,-9.449997,-0.17677307
1518196713698.00 ,3.8828583,-8.695419,-1.4478912
1518196713900.00 ,3.3853607,-8.733505,-0.75520325
1518196714102.00 ,3.1378021,-9.416672,0.5920868
1518196714303.00 ,1.5024872,-11.444748,0.25645447
1518196714505.00 ,2.3618011,-9.680893,-0.445755
1518196714707.00 ,4.594589,-7.5290375,-6.9417877
1518196714908.00 ,3.0973358,-7.569504,-4.2733917
1518196715110.00 ,1.0287933,-9.987961,-4.39003
1518196715311.00 ,1.5358124,-8.345505,-1.3740997
1518196715511.00 ,1.1287689,-9.835617,-1.9334869
1518196715713.00 ,2.2975311,-8.447861,-1.9858551
1518196715915.00 ,2.9402313,-8.640671,0.8729706
1518196716117.00 ,3.9185638,-9.447617,0.47306824
1518196716318.00 ,3.713852,-8.950119,1.1276703
1518196716519.00 ,3.9685516,-10.897263,-1.1408234
1518196716721.00 ,0.82170105,-7.321945,-2.7142487
1518196716923.00 ,1.8238373,-9.292892,-5.2517242
1518196717123.00 ,2.3713226,-11.237656,-2.100113
1518196717325.00 ,-0.020950317,-9.811813,-2.069168
1518196717527.00 ,4.7421722,-9.688034,0.91819763
1518196717729.00 ,3.0116425,-8.409775,-1.3074493
1518196717930.00 ,2.1380463,-9.459518,-0.49812317
1518196718131.00 ,1.635788,-9.476181,-2.0834503
1518196718332.00 ,0.5217743,-9.657089,-3.3950348
1518196718534.00 ,3.804306,-6.550705,-3.980606
1518196718736.00 ,-0.88264465,-9.028671,-6.3062286
1518196718936.00 ,4.863571,-7.5433197,-3.6259308
1518196719138.00 ,4.0756683,-9.328598,0.054122925
1518196719338.00 ,3.6852875,-8.914413,0.42308044
1518196719541.00 ,3.130661,-8.714462,-0.7099762
1518196719742.00 ,5.30632,-8.907272,0.25645447
1518196719943.00 ,4.735031,-8.490707,0.0231781
1518196720145.00 ,3.682907,-9.419052,-0.09107971
1518196720347.00 ,2.4260712,-7.6194916,-2.0786896
1518196720548.00 ,3.2377777,-6.876816,-3.3117218
1518196720750.00 ,3.50914,-8.723984,-3.2403107
1518196720950.00 ,2.604599,-8.017014,-3.5545197
1518196721152.00 ,3.0544891,-8.897751,-1.9906158
1518196721354.00 ,5.3277435,-7.9146576,-1.0598907
1518196721554.00 ,3.240158,-9.073898,-0.5433502
1518196721757.00 ,2.8378754,-9.480942,-1.0813141
1518196721959.00 ,4.7255096,-8.797775,0.53019714
1518196722160.00 ,4.7493134,-8.205063,-0.6004791
1518196722361.00 ,2.7474213,-8.535934,-2.728531
1518196722563.00 ,3.9376068,-8.264572,-2.7570953
1518196722764.00 ,4.3708344,-7.8384857,-3.1998444
1518196722966.00 ,4.349411,-7.9456024,-2.4357452
1518196723167.00 ,4.8135834,-8.302658,-2.8737335
1518196723369.00 ,4.7255096,-7.92894,-2.0548859
1518196723570.00 ,4.9492645,-7.8813324,-2.690445
1518196723770.00 ,4.861191,-8.088425,-2.4238434
1518196723971.00 ,4.8326263,-8.2026825,-2.2786407
1518196724173.00 ,5.144455,-7.92894,-2.5476227
1518196724376.00 ,4.8278656,-8.062241,-2.5999908
1518196724577.00 ,5.04924,-7.9646454,-2.5452423
1518196724777.00 ,5.0016327,-8.017014,-2.5261993
1518196724979.00 ,5.068283,-7.974167,-2.5523834
1518196725181.00 ,5.1039886,-7.962265,-2.5738068
1518196725383.00 ,5.042099,-8.050339,-2.4619293
1518196725584.00 ,5.1849213,-7.9456024,-2.4952545
1518196725786.00 ,4.977829,-7.9836884,-2.5000153
1518196725987.00 ,4.996872,-8.097946,-2.5642853
1518196726189.00 ,5.234909,-7.9836884,-2.4428864
1518196726390.00 ,5.2063446,-8.005112,-2.3690948
1518196726591.00 ,5.1016083,-8.012253,-2.3905182
1518196726793.00 ,5.1539764,-7.981308,-2.4309845
1518196726994.00 ,5.1158905,-7.9337006,-2.4095612
1518196727196.00 ,5.223007,-8.007492,-2.3667145
1518196727397.00 ,5.04924,-7.9789276,-2.5166779
1518196727598.00 ,5.2111053,-7.981308,-2.4643097
1518196727800.00 ,5.189682,-7.936081,-2.4190826
1518196728001.00 ,5.170639,-7.8765717,-2.4690704
1518196728203.00 ,5.2253876,-8.000351,-2.5333405
1518196728404.00 ,5.1801605,-7.936081,-2.4452667
1518196728606.00 ,5.2301483,-7.9027557,-2.478592
1518196728808.00 ,5.1539764,-8.007492,-2.4643097
1518196729007.00 ,5.203964,-7.9408417,-2.4071808
1518196729210.00 ,4.8921356,-8.128891,-2.2215118
1518196729410.00 ,5.156357,-7.9527435,-2.6737823
1518196729611.00 ,5.1016083,-7.8575287,-2.497635
1518196729813.00 ,5.1992035,-7.8170624,-2.5285797
1518196730015.00 ,5.1849213,-7.8622894,-2.5595245
1518196730216.00 ,5.201584,-7.781357,-2.5666656
1518196730419.00 ,3.4282074,-7.405258,-4.2519684
1518196730620.00 ,4.7445526,-8.138412,-2.3690948
1518196730822.00 ,5.4943695,-7.783737,-2.0763092
1518196731022.00 ,3.0711517,-9.7356415,-2.0263214
1518196731224.00 ,4.6398163,-8.324081,-2.3548126
1518196731426.00 ,1.7548065,-9.514267,-1.562149
1518196731626.00 ,2.180893,-9.154831,-2.3167267
1518196731827.00 ,2.264206,-9.092941,-2.0667877
1518196732029.00 ,2.7664642,-9.092941,-2.004898
1518196732230.00 ,2.6926727,-8.940598,-2.2000885
1518196732433.00 ,2.990219,-9.038193,-2.1477203
1518196732635.00 ,2.7807465,-9.064377,-2.3476715
1518196732836.00 ,2.8069305,-8.771591,-2.7071075
1518196733036.00 ,1.9000092,-7.1362762,-3.2212677
1518196733239.00 ,-2.4513092,-15.422348,-5.8896637
1518196733439.00 ,3.0687714,-12.027939,-6.0086823
1518196733641.00 ,1.385849,0.9736481,-0.5385895
1518196733842.00 ,-7.5024567,-38.476242,-15.211197
1518196734043.00 ,0.014755249,2.6946564,0.31834412
1518196734244.00 ,-2.0752106,-3.2943573,2.7248993
1518196734446.00 ,8.048508,-24.99858,-8.539017
1518196734649.00 ,1.571518,0.92604065,-5.3445587
1518196734850.00 ,-3.0368805,-3.2396088,-3.0998688
1518196735051.00 ,1.681015,-19.54039,-6.565689
1518196735253.00 ,7.032089,0.6070709,-9.531631
1518196735455.00 ,0.1504364,-4.3655243,-5.7920685
1518196735656.00 ,4.939743,-9.614243,-1.4455109
1518196735858.00 ,1.8904877,-1.8661346,1.3157196
1518196736059.00 ,0.9431,-19.704636,-24.770767
1518196736260.00 ,5.234909,-4.344101,0.4921112
1518196736462.00 ,2.8378754,-4.801132,2.6249237
1518196736663.00 ,8.70549,-38.84163,-9.181717
1518196736865.00 ,-8.542679,8.326614,-2.9165802
1518196737066.00 ,5.2825165,-0.09513855,3.108139
1518196737266.00 ,-2.2799225,-24.679611,-14.4709015
1518196737467.00 ,2.4665375,0.947464,-10.652786
1518196737670.00 ,-2.1394806,-5.8818207,-4.2281647
1518196737872.00 ,-1.4063263,0.19050598,7.4142303
1518196738072.00 ,4.168503,-2.9920502,6.738205
1518196738274.00 ,-0.101882935,-38.84163,-9.531631
1518196738475.00 ,-1.9157257,4.237137,3.6556244
1518196738676.00 ,-1.2039948,-2.41362,2.4749603
1518196738877.00 ,11.300095,-34.374863,-8.096268
1518196739079.00 ,-1.1659088,3.5039825,3.2961884
1518196739280.00 ,1.2668304,-2.0232391,6.1526337
1518196739482.00 ,1.5120087,-28.20018,-12.564224
1518196739683.00 ,-1.706253,7.824356,4.8553314
1518196739885.00 ,1.8976288,-2.6016693,6.0312347
1518196740087.00 ,13.394821,-23.030014,-13.913895
1518196740289.00 ,-3.5558014,6.0819244,-0.529068
1518196740489.00 ,7.467697,-1.759018,-15.768204
1518196740692.00 ,-0.28279114,-20.359238,-6.4157257
1518196740894.00 ,4.1613617,-0.20939636,-4.9708405
1518196741093.00 ,3.3710785,-9.845139,-20.35994
1518196741296.00 ,3.2115936,-10.75444,-3.2712555
1518196741496.00 ,0.06712341,0.80226135,-0.86231995
1518196741697.00 ,-10.437454,-22.16832,2.6558685
1518196741900.00 ,2.2499237,-4.813034,-2.0168
1518196742102.00 ,-2.6155548,-1.637619,2.8367767
1518196742302.00 ,9.624313,-30.747177,-7.912979
1518196742504.00 ,-4.424637,1.4044952,5.0338593
1518196742706.00 ,1.1240082,-1.9256439,4.743454
1518196742908.00 ,11.97612,-32.5634,-9.041275
1518196743108.00 ,-3.3439484,4.546585,1.1371918
1518196743310.00 ,-1.5039215,-1.8209076,3.7341766
1518196743511.00 ,6.601242,-19.961716,-7.841568
1518196743713.00 ,-4.098526,7.3149567,-1.5645294
1518196743915.00 ,12.066574,-2.746872,-16.57515
1518196744116.00 ,1.3620453,-14.439255,-4.6637726
1518196744318.00 ,-2.1442413,-0.566452,-5.7158966
1518196744518.00 ,4.1780243,-8.735886,-1.2741241
1518196744721.00 ,3.437729,-10.587814,-0.48384094
1518196744921.00 ,3.63768,-9.328598,-0.5028839
1518196745123.00 ,3.1735077,-9.326218,-0.510025
1518196745324.00 ,4.0756683,-8.914413,-0.8337555
1518196745525.00 ,4.618393,-8.928696,-0.907547
1518196745726.00 ,4.3541718,-8.657333,-0.5385895
1518196745928.00 ,4.3922577,-8.854904,-0.8932648
1518196746131.00 ,4.5779266,-8.502609,-0.94325256
1518196746332.00 ,4.21373,-8.783493,-1.1241608
1518196746533.00 ,4.3732147,-8.673996,-1.0646515
1518196746735.00 ,4.546982,-8.669235,-1.0860748
1518196746936.00 ,4.5255585,-8.6454315,-1.0384674
1518196747138.00 ,4.4565277,-8.621628,-1.1217804
1518196747339.00 ,4.4731903,-8.640671,-1.009903
1518196747541.00 ,4.425583,-8.63591,-1.0717926
1518196747742.00 ,4.466049,-8.657333,-0.95277405
1518196747944.00 ,4.656479,-8.6454315,-1.1598663
1518196748145.00 ,4.330368,-8.731125,-1.1860504
1518196748345.00 ,4.546982,-8.545456,-1.0765533
1518196748546.00 ,4.361313,-8.814438,-0.9051666
1518196748749.00 ,4.9825897,-8.243149,-1.3955231
1518196748951.00 ,4.168503,-8.76445,-1.2693634
1518196749151.00 ,4.7326508,-8.557358,-1.4883575
1518196749352.00 ,4.7897797,-8.500229,-1.2265167
1518196749555.00 ,4.6088715,-8.666855,-1.0075226
1518196749756.00 ,4.8064423,-8.652573,-1.1979523
1518196749958.00 ,4.9873505,-8.557358,-1.0694122
1518196750159.00 ,4.485092,-8.50499,-1.2788849
1518196750360.00 ,5.189682,-8.269333,-1.036087
1518196750561.00 ,4.318466,-8.835861,-1.3431549
1518196750764.00 ,4.944504,-8.278854,-1.18367
1518196750966.00 ,4.958786,-8.612106,-1.3003082
1518196751167.00 ,4.7326508,-7.886093,-1.1051178
1518196751367.00 ,4.689804,-7.6956635,-1.0598907
1518196751568.00 ,5.015915,-8.226486,-1.2431793
1518196751771.00 ,5.1682587,-8.385971,-1.2265167
1518196751973.00 ,4.9349823,-8.435959,-1.1479645
1518196752174.00 ,5.0516205,-8.259811,-1.1313019
1518196752375.00 ,5.0706635,-8.393112,-1.2312775
1518196752576.00 ,5.156357,-8.359787,-1.1432037
1518196752778.00 ,5.1468353,-8.657333,-1.2074738
1518196752979.00 ,5.1801605,-8.409775,-1.3264923
1518196753181.00 ,5.170639,-8.502609,-1.0884552
1518196753383.00 ,5.2967987,-6.7197113,-1.2717438
1518196753584.00 ,5.1158905,-8.05748,-1.2812653
1518196753784.00 ,5.3158417,-8.193161,-1.0289459
1518196753985.00 ,4.523178,-8.390732,-1.4693146
1518196754186.00 ,4.939743,-8.37645,-1.2169952
1518196754390.00 ,4.451767,-7.488571,0.19694519
1518196754591.00 ,-0.7493439,-14.751083,0.43974304
1518196754792.00 ,-1.3491974,0.24525452,-6.2538605
1518196754994.00 ,1.9142914,-4.196518,-9.614944
1518196755195.00 ,-12.315567,1.390213,8.349716
1518196755396.00 ,39.4337,-28.65483,6.4073334
1518196755598.00 ,-7.557205,2.7970123,-0.07203674
1518196755800.00 ,-0.94215393,-6.993454,-8.0629425
1518196756001.00 ,-2.527481,3.7039337,4.1102753
1518196756201.00 ,11.240585,-14.15361,-5.911087
1518196756403.00 ,4.2065887,-10.059372,-9.8910675
1518196756604.00 ,4.542221,-9.354782,-4.0424957
1518196756807.00 ,-6.509842,-3.3990936,-3.49263
1518196757007.00 ,-4.2508698,-7.92894,7.0619354
1518196757209.00 ,0.35038757,-16.474472,-15.237381
1518196757411.00 ,7.620041,-7.3052826,-3.3926544
1518196757612.00 ,-6.9930573,-14.467819,-1.1360626
1518196757814.00 ,-2.9083405,-1.1329803,0.2612152
1518196758014.00 ,6.8464203,-17.429,-13.102188
1518196758217.00 ,3.6805267,-1.8613739,-0.04585266
1518196758418.00 ,-11.391983,-38.488144,-13.271194
1518196758620.00 ,-5.048294,4.3442535,-1.7263947
1518196758820.00 ,7.786667,-11.466171,-15.342117
1518196759021.00 ,13.5638275,-2.3517303,-6.7013702
1518196759224.00 ,-1.1968536,-38.84163,-15.10408
1518196759425.00 ,-3.5367584,5.179764,1.0848236
1518196759627.00 ,6.1989594,-5.4890594,-5.706375
1518196759828.00 ,4.992111,-0.49742126,-0.69807434
1518196760028.00 ,21.369064,-25.498459,1.44664
1518196760231.00 ,-5.3006134,7.683914,-2.364334
1518196760432.00 ,1.9809418,-0.19511414,-7.501175
1518196760634.00 ,-1.6038971,11.049759,-1.9192047
1518196760835.00 ,8.465073,-16.921982,-7.8629913
1518196761036.00 ,-8.61647,-7.043442,-11.578751
1518196761238.00 ,2.1642303,-6.993454,-1.8144684
1518196761439.00 ,1.7762299,0.58802795,-8.24147
1518196761640.00 ,5.7514496,-13.551376,-4.13533
1518196761842.00 ,-10.430313,-2.1851044,0.0231781
1518196762044.00 ,4.0947113,-9.795151,-8.403336
1518196762245.00 ,-3.3439484,6.612747,5.859848
1518196762447.00 ,9.393417,-17.74321,-7.4654694
1518196762648.00 ,3.0544891,9.164505,2.6511078
1518196762850.00 ,6.041855,-4.415512,-14.706558
1518196763051.00 ,4.8588104,-0.6354828,-2.7856598
1518196763251.00 ,16.01323,-38.84163,-8.448563
1518196763454.00 ,0.26945496,0.12385559,2.4392548
1518196763655.00 ,8.084213,-19.03099,-10.281448
1518196763856.00 ,3.6543427,-4.3012543,0.3849945
1518196764058.00 ,-19.092484,-12.54686,3.9460297
1518196764260.00 ,-4.7816925,-7.73851,-2.9832306
1518196764461.00 ,4.811203,-17.631332,-18.931717
1518196764661.00 ,1.3287201,-7.8551483,-0.7528229
1518196764864.00 ,-15.241043,-10.245041,4.8362885
1518196765065.00 ,-1.6824493,-9.519028,-3.6378326
1518196765267.00 ,5.977585,-19.60228,-1.5645294
1518196765468.00 ,-0.023330688,-10.252182,-1.7263947
1518196765670.00 ,1.257309,-9.987961,-1.619278
1518196765871.00 ,0.92881775,-9.100082,-1.0765533
1518196766072.00 ,2.5450897,-8.859665,-1.3955231
1518196766273.00 ,2.9616547,-8.70018,-1.4550323
1518196766474.00 ,2.3332367,-9.59996,-0.9575348
1518196766675.00 ,2.9878387,-9.307175,-1.3764801
1518196766877.00 ,2.835495,-9.3405,-0.83613586
1518196767079.00 ,2.3118134,-9.428574,-1.0075226
1518196767280.00 ,2.649826,-9.247665,-1.0027618
1518196767481.00 ,2.9021454,-9.283371,-1.2146149
1518196767684.00 ,2.630783,-9.247665,-1.3074493
1518196767886.00 ,2.5498505,-9.280991,-1.2050934
1518196768087.00 ,2.8021698,-9.231003,-1.0670319
1518196768289.00 ,2.457016,-9.292892,-0.9980011
1518196768489.00 ,2.8212128,-9.257187,-0.99324036
1518196768691.00 ,2.6926727,-9.321457,-0.9551544
1518196768893.00 ,2.714096,-9.216721,-1.0027618
1518196769093.00 ,2.8307343,-9.221481,-1.0884552
1518196769294.00 ,2.7617035,-9.245285,-1.0384674
1518196769495.00 ,2.661728,-9.21196,-1.0908356
1518196769697.00 ,2.873581,-9.235764,-0.9170685
1518196769899.00 ,2.745041,-9.233383,-1.1051178
1518196770101.00 ,2.6260223,-9.27623,-1.0836945
1518196770303.00 ,2.5903168,-9.347641,-1.1622467
1518196770503.00 ,2.6069794,-9.297653,-0.9313507
1518196770705.00 ,2.7021942,-9.266708,-0.9837189
1518196770907.00 ,2.6902924,-9.250046,-0.9337311
1518196771107.00 ,2.7212372,-9.250046,-1.0789337
1518196771309.00 ,2.8188324,-9.304794,-1.0598907
1518196771510.00 ,2.642685,-9.259567,-0.97657776
1518196771713.00 ,2.559372,-9.264328,-1.0598907
1518196771913.00 ,2.5688934,-9.345261,-0.9837189
1518196772114.00 ,2.6355438,-9.271469,-1.0908356
1518196772316.00 ,2.597458,-9.283371,-1.036087
1518196772517.00 ,2.476059,-9.266708,-0.96229553
1518196772720.00 ,2.399887,-9.319077,-0.8266144
1518196772921.00 ,1.9618988,-9.359543,-1.0717926
1518196773122.00 ,2.2737274,-9.409531,-0.907547
1518196773324.00 ,1.0644989,-9.480942,-1.1074982
1518196773526.00 ,1.2454071,-9.414291,-0.6266632
1518196773726.00 ,1.090683,-9.316696,-0.5838165
1518196773929.00 ,0.64793396,-9.718979,-0.7194977
1518196774130.00 ,0.48606873,-10.04747,-0.6338043
1518196774330.00 ,1.7167206,-9.66423,-0.4052887
1518196774532.00 ,0.545578,-9.564255,-0.59095764
1518196774734.00 ,0.8240814,-9.609482,-0.5433502
1518196774936.00 ,1.00737,-9.300034,-0.54096985
1518196775136.00 ,1.5881805,-9.40715,-1.074173
1518196775338.00 ,1.6381683,-9.40715,-1.1812897
1518196775540.00 ,1.9190521,-9.204819,-1.3193512
1518196775741.00 ,1.5619965,-9.561874,-1.3288727
1518196775943.00 ,2.0713959,-9.40715,-1.1622467
1518196776145.00 ,2.1927948,-9.311935,-1.3431549
1518196776346.00 ,2.2808685,-9.314316,-1.305069
1518196776547.00 ,2.1927948,-9.300034,-1.2955475
1518196776749.00 ,2.002365,-9.352402,-1.3550568
1518196776949.00 ,1.9833221,-9.345261,-1.2884064
1518196777150.00 ,2.7117157,-9.247665,-1.4217072
1518196777352.00 ,2.4355927,-9.161972,-2.5833282
1518196777554.00 ,1.8143158,-7.236252,-3.0427399
1518196777756.00 ,4.8326263,-6.191269,-3.7449493
1518196777956.00 ,3.4139252,-8.854904,-4.8637238
1518196778157.00 ,-0.51130676,-8.345505,-0.27674866
1518196778360.00 ,1.4167938,-8.714462,-1.6383209
1518196778561.00 ,2.0928192,-9.676132,0.2873993
1518196778763.00 ,1.3311005,-9.607101,-0.3053131
1518196778963.00 ,4.0185394,-8.857285,-1.5240631
1518196779165.00 ,2.3498993,-6.986313,-2.7190094
1518196779366.00 ,3.3972626,-8.690659,-4.935135
1518196779567.00 ,0.7169647,-8.885849,-2.947525
1518196779770.00 ,5.375351,-9.649948,-2.5547638
1518196779970.00 ,4.047104,-9.619003,-2.0525055
1518196780173.00 ,3.206833,-8.778732,0.3207245
1518196780374.00 ,2.1309052,-10.759201,-1.3431549
1518196780575.00 ,3.5591278,-11.340012,-3.8568268
1518196780778.00 ,3.5638885,-5.6937714,-3.8782501
1518196780978.00 ,1.9738007,-8.181259,-4.416214
1518196781179.00 ,1.0787811,-12.204086,-2.292923
1518196781382.00 ,3.0425873,-10.966293,-1.9929962
1518196781582.00 ,3.5781708,-9.131027,-1.2693634
1518196781783.00 ,4.187546,-9.204819,-0.23390198
1518196781986.00 ,2.0666351,-9.830856,0.8967743
1518196782188.00 ,1.1597137,-9.200058,-2.2953033
1518196782389.00 ,2.9687958,-8.659714,-4.1067657
1518196782590.00 ,3.1663666,-7.148178,-4.056778
1518196782791.00 ,3.785263,-7.7527924,-4.7089996
1518196782993.00 ,3.83049,-7.462387,-3.890152
1518196783194.00 ,-2.5441437,-8.89299,0.0398407
1518196783396.00 ,2.975937,-9.100082,-1.1455841
1518196783597.00 ,2.7355194,-9.252426,-1.812088
1518196783798.00 ,5.849045,-9.2738495,0.5587616
1518196783999.00 ,4.432724,-13.399033,0.7991791
1518196784200.00 ,3.6710052,-10.156967,-3.7663727
1518196784403.00 ,1.661972,-5.4962006,-2.8808746
1518196784605.00 ,-3.6914825,-9.088181,-6.6251984
1518196784806.00 ,4.004257,-8.778732,-0.4219513
1518196785006.00 ,3.57341,-9.878464,0.23503113
1518196785209.00 ,2.975937,-9.607101,-0.095840454
1518196785410.00 ,2.983078,-9.038193,-0.04585266
1518196785612.00 ,3.7090912,-9.1905365,0.08744812
1518196785813.00 ,5.451523,-9.833237,-0.5600128
1518196786014.00 ,5.1301727,-9.250046,-0.055374146
1518196786215.00 ,3.649582,-7.236252,-1.2907867
1518196786418.00 ,4.092331,-8.362167,-2.3548126
1518196786619.00 ,4.7064667,-12.392136,-3.159378
1518196786820.00 ,7.082077,-8.552597,-1.2979279
1518196787021.00 ,3.7471771,-8.654953,-1.266983
1518196787223.00 ,3.3091888,-9.047714,-0.67189026
1518196787425.00 ,3.8780975,-9.364304,0.56114197
1518196787625.00 ,4.1804047,-11.530441,-0.23866272
1518196787826.00 ,4.3137054,-12.025558,-1.0289459
1518196788028.00 ,3.547226,-7.276718,-2.947525
1518196788229.00 ,3.9852142,-7.731369,-1.1955719
1518196788432.00 ,1.3144379,-11.866074,0.43260193
1518196788633.00 ,7.5272064,-8.559738,-0.3314972
1518196788834.00 ,3.2687225,-9.866562,-0.003005981
1518196789035.00 ,3.1020966,-9.202438,-0.73854065
1518196789236.00 ,3.3829803,-8.6978,0.2207489
1518196789439.00 ,5.503891,-9.887985,-0.25532532
1518196789639.00 ,1.9095306,-9.369064,-0.39100647
1518196789842.00 ,2.0285492,-7.569504,-2.0858307
1518196790044.00 ,4.254196,-5.127243,-4.8946686
1518196790244.00 ,1.4382172,-7.9075165,-3.961563
1518196790446.00 ,1.949997,-8.1193695,-2.5928497
1518196790648.00 ,3.2377777,-9.583298,-1.6359406
1518196790848.00 ,2.9521332,-8.652573,-0.54096985
1518196791049.00 ,1.809555,-9.330978,-0.4957428
1518196791252.00 ,3.2044525,-9.816574,-0.5124054
1518196791453.00 ,1.4596405,-11.168625,-3.7592316
1518196791654.00 ,3.2806244,-9.280991,-0.83613586
1518196791856.00 ,2.347519,-9.0429535,-1.036087
1518196792058.00 ,2.1570892,-9.169113,-1.2455597
1518196792259.00 ,2.771225,-9.314316,-1.3074493
1518196792461.00 ,3.2353973,-9.161972,-1.0575104
1518196792661.00 ,2.3594208,-9.354782,-1.2146149
1518196792862.00 ,3.130661,-9.138168,-0.74568176
1518196793064.00 ,3.18779,-9.123886,-1.266983
1518196793265.00 ,2.495102,-9.152451,-1.414566
1518196793467.00 ,2.733139,-9.307175,-1.2788849
1518196793669.00 ,2.1594696,-9.478561,-1.1693878
1518196793871.00 ,2.6974335,-9.359543,-1.1146393
1518196794072.00 ,2.1451874,-9.909409,-1.0003815
1518196794272.00 ,2.6593475,-9.40477,-0.7742462
1518196794473.00 ,3.7162323,-9.012009,-0.7194977
1518196794676.00 ,3.3091888,-9.21196,-0.4386139
1518196794877.00 ,3.4044037,-9.078659,-0.53144836
1518196795079.00 ,3.868576,-9.066757,-0.53382874
1518196795279.00 ,3.7995453,-8.976303,-0.510025
1518196795480.00 ,3.8995209,-9.004868,-0.68141174
1518196795683.00 ,3.7305145,-9.000107,-0.6837921
1518196795885.00 ,3.778122,-8.940598,-0.85279846
1518196796086.00 ,3.8995209,-8.909653,-0.65760803
1518196796288.00 ,3.868576,-8.952499,-0.81233215
1518196796488.00 ,3.9685516,-8.883469,-0.81947327
1518196796689.00 ,3.9947357,-9.002487,-0.7575836
1518196796891.00 ,3.797165,-8.9596405,-0.67427063
1518196797092.00 ,3.6900482,-9.157211,-0.6457062
1518196797295.00 ,0.7003021,-5.9270477,-0.4219513
1518196797495.00 ,13.463852,-19.138107,-4.3114777
1518196797696.00 ,0.08140564,2.435196,0.67063904
1518196797899.00 ,-2.3656158,-3.7299652,-0.4124298
1518196798099.00 ,4.554123,-17.947922,-8.827042
1518196798301.00 ,-5.517227,-2.016098,4.167404
1518196798503.00 ,3.6591034,-10.435471,-8.465225
1518196798704.00 ,-3.020218,-3.9513397,-0.5861969
1518196798907.00 ,9.322006,-0.7806854,3.0081635
1518196799108.00 ,5.8276215,-38.84163,-9.612564
1518196799308.00 ,-2.3584747,4.9607697,-0.59095764
1518196799509.00 ,-1.3111115,-3.5062103,-3.0736847
1518196799712.00 ,9.3172455,-34.850937,-8.260513
1518196799914.00 ,-4.988785,1.8139191,-2.9879913
1518196800115.00 ,1.0573578,2.4304352,-1.2431793
1518196800316.00 ,4.780258,-24.515366,-12.580887
1518196800519.00 ,-3.5319977,4.1895294,-3.2069855
1518196800719.00 ,1.1501923,-0.3450775,0.58018494
1518196800921.00 ,5.587204,-15.88652,-1.2050934
1518196801122.00 ,-1.5110626,-0.83781433,2.5082855
1518196801324.00 ,4.9302216,-15.803207,4.1316986
1518196801525.00 ,5.027817,-5.808029,-3.36409
1518196801725.00 ,2.7569427,-2.1327362,0.60398865
1518196801926.00 ,-5.714798,-34.853317,5.4194794
1518196802129.00 ,0.048080444,-1.8447113,-1.4026642
1518196802330.00 ,4.682663,-0.25224304,2.5892181
1518196802531.00 ,8.379379,-32.722885,-9.260269
1518196802734.00 ,1.0597382,1.2354889,1.1847992
1518196802935.00 ,1.8976288,-2.8992157,3.2462006
1518196803136.00 ,10.269394,-29.792648,-6.046768
1518196803338.00 ,-3.9152374,4.2466583,2.6320648
1518196803539.00 ,1.616745,-3.382431,1.1276703
1518196803740.00 ,4.508896,-21.856491,-8.231949
1518196803941.00 ,-5.298233,3.8610382,-4.666153
1518196804143.00 ,0.38609314,-14.101242,-13.37355
1518196804345.00 ,0.9145355,-5.010605,-2.5857086
1518196804547.00 ,1.1430511,-0.6569061,3.2700043
1518196804748.00 ,1.7357635,-28.690536,-8.805618
1518196804949.00 ,-2.179947,2.3376007,0.81108093
1518196805150.00 ,2.5950775,-1.9089813,-2.1239166
1518196805352.00 ,10.859726,-28.666733,-10.812271
1518196805554.00 ,-4.148514,5.5939484,0.99198914
1518196805755.00 ,4.7564545,-3.1943817,-24.08284
1518196805957.00 ,-2.3918,-18.690598,-3.4973907
1518196806158.00 ,-3.6224518,1.4568634,-0.90992737
1518196806358.00 ,-7.8666534,-30.96379,-7.365494
1518196806561.00 ,1.4524994,-1.1258392,2.2154999
1518196806763.00 ,2.9735565,-0.816391,4.057907
1518196806963.00 ,-6.8264313,-32.863327,-14.4709015
1518196807165.00 ,1.2287445,5.2749786,1.715622
1518196807367.00 ,0.19566345,-4.396469,4.391159
1518196807568.00 ,1.3691864,-23.094284,-14.744644
1518196807769.00 ,-0.73506165,8.10762,1.9679413
1518196807971.00 ,3.0045013,-1.0234833,-0.13868713
1518196808172.00 ,-5.7362213,-12.444504,-3.916336
1518196808374.00 ,-1.8704987,-6.410263,-0.7980499
1518196808575.00 ,-2.7559967,-9.507126,-0.8575592
1518196808776.00 ,0.7288666,-9.797531,-1.1027374
1518196808977.00 ,0.7455292,-9.445236,-1.1194
1518196809179.00 ,0.8574066,-9.509506,-1.0170441
1518196809381.00 ,0.609848,-9.457138,-0.9337311
1518196809582.00 ,0.7193451,-9.383347,-0.9503937
1518196809784.00 ,0.9573822,-9.85228,-0.7266388
1518196809985.00 ,1.4977264,-9.592819,-0.29103088
1518196810187.00 ,1.4929657,-9.40715,-0.3386383
1518196810388.00 ,1.4667816,-9.730881,-0.15058899
1518196810588.00 ,1.321579,-9.53331,-0.3386383
1518196810791.00 ,1.2097015,-9.161972,-0.40290833
1518196810993.00 ,1.6786346,-9.071518,-1.05513
1518196811194.00 ,1.2620697,-9.778488,-0.50050354
1518196811394.00 ,2.9235687,-9.657089,-0.41957092
1518196811597.00 ,3.5400848,-8.935837,-0.3386383
1518196811798.00 ,1.8190765,-9.699936,-0.5124054
1518196811998.00 ,2.4974823,-9.426193,-0.11250305
1518196812201.00 ,2.3713226,-8.604965,-0.35292053
1518196812401.00 ,2.7212372,-9.354782,-0.34577942
1518196812604.00 ,2.828354,-9.369064,-0.3791046
1518196812804.00 ,2.7021942,-9.250046,-0.49812317
1518196813005.00 ,3.6091156,-8.819199,-0.41004944
1518196813208.00 ,2.956894,-9.40239,-0.6528473
1518196813409.00 ,3.149704,-9.15007,-0.40290833
1518196813611.00 ,2.7997894,-9.452377,-0.43385315
1518196813811.00 ,2.7807465,-9.354782,-0.36958313
1518196814013.00 ,2.8664398,-9.319077,-0.43623352
1518196814215.00 ,2.9925995,-9.216721,-0.45289612
1518196814416.00 ,2.9235687,-9.195297,-0.34101868
1518196814617.00 ,2.188034,-9.40239,-0.5695343
1518196814818.00 ,2.1285248,-11.2686,-0.3314972
1518196815020.00 ,3.5210419,-9.0429535,-0.34577942
1518196815223.00 ,3.354416,-9.109604,-0.49098206
1518196815424.00 ,3.3829803,-9.197678,-0.46479797
1518196815625.00 ,3.361557,-9.195297,-0.36720276
1518196815827.00 ,3.2853851,-9.207199,-0.40766907
1518196816027.00 ,3.3782196,-9.123886,-0.55049133
1518196816229.00 ,3.297287,-9.116745,-0.4719391
1518196816430.00 ,3.3496552,-9.226242,-0.43147278
1518196816631.00 ,3.271103,-9.133408,-0.4552765
1518196816833.00 ,3.2639618,-9.271469,-0.45051575
1518196817035.00 ,3.3663177,-9.171494,-0.45765686
1518196817237.00 ,3.104477,-9.026291,-0.46479797
1518196817437.00 ,2.7855072,-10.026047,-0.8004303
1518196817639.00 ,3.3472748,-9.209579,-0.42671204
1518196817841.00 ,2.714096,-10.330734,-2.1691437
1518196818041.00 ,2.1285248,-8.888229,-1.2336578
1518196818243.00 ,1.0764008,-9.588058,-1.0503693
1518196818444.00 ,1.4572601,-9.328598,-0.6100006
1518196818647.00 ,1.3191986,-9.573776,-0.7337799
1518196818848.00 ,1.3882294,-9.676132,-0.7694855
1518196819049.00 ,0.9907074,-9.964157,-1.4240875
1518196819250.00 ,2.29039,-8.1884,-2.33815
1518196819452.00 ,5.1206512,-6.4650116,-2.2857819
1518196819654.00 ,5.189682,-16.874374,-3.0713043
1518196819854.00 ,-0.30421448,5.920059,-2.5071564
1518196820057.00 ,4.6993256,-1.0996552,-14.570877
1518196820258.00 ,4.463669,4.0609894,6.4668427
1518196820460.00 ,16.365524,-17.012436,-7.0679474
1518196820662.00 ,10.457443,-3.5062103,-6.001541
1518196820863.00 ,1.5643768,1.7472687,1.1919403
1518196821064.00 ,5.522934,-23.96312,-2.4357452
1518196821266.00 ,-2.084732,4.32283,-1.2288971
1518196821467.00 ,4.425583,-5.3152924,-13.668716
1518196821667.00 ,-5.4553375,8.319473,4.8862762
1518196821869.00 ,33.51848,-33.19182,4.6244354
1518196822070.00 ,3.5805511,6.2937775,-0.23866272
1518196822272.00 ,4.761215,-0.5117035,-7.096512
1518196822473.00 ,-6.6240997,7.688675,6.802475
1518196822675.00 ,7.1035004,-16.629196,-3.447403
1518196822877.00 ,-4.3199005,2.8493805,-1.2574615
1518196823079.00 ,-0.8302765,-5.434311,-10.514725
1518196823279.00 ,-10.758804,9.147842,2.839157
1518196823480.00 ,25.391891,-25.522263,-15.946732
1518196823683.00 ,1.4453583,10.28566,-0.9480133
1518196823884.00 ,7.684311,2.4280548,-12.4951935
1518196824086.00 ,3.6257782,6.655594,1.9631805
1518196824286.00 ,34.789597,-27.536057,-10.559952
1518196824487.00 ,0.7836151,7.812454,-3.1236725
1518196824690.00 ,7.596237,5.501114,-8.317642
1518196824891.00 ,3.8757172,9.462051,4.2007294
1518196825092.00 ,31.28331,-31.247055,-17.646317
1518196825294.00 ,12.630722,7.284012,6.109787
1518196825495.00 ,13.092514,-2.6968842,-13.513992
1518196825697.00 ,7.262985,-2.016098,-2.4000397
1518196825899.00 ,20.76445,-33.684555,-13.302139
1518196826100.00 ,-0.506546,1.8805695,5.405197
1518196826300.00 ,9.586227,-13.589462,-5.968216
1518196826502.00 ,4.7683563,-4.865402,-4.601883
1518196826704.00 ,-20.123184,-38.84163,-11.554947
1518196826906.00 ,-5.521988,-3.0253754,1.9988861
1518196827106.00 ,-0.51368713,-15.493759,-11.483536
1518196827308.00 ,2.752182,-5.972275,-0.54096985
1518196827509.00 ,-24.71492,-38.84163,-4.96846
1518196827710.00 ,-5.200638,-3.087265,-0.7861481
1518196827913.00 ,4.901657,-24.755783,-6.0800934
1518196828115.00 ,0.8740692,-6.948227,-0.95991516
1518196828316.00 ,-13.065384,-30.332993,-6.629959
1518196828518.00 ,-3.398697,-6.7387543,-2.8475494
1518196828719.00 ,-4.6269684,-13.499008,-22.080948
1518196828921.00 ,0.68125916,-12.175522,-2.2857819
1518196829120.00 ,-5.0244904,-2.4445648,-8.148636
1518196829321.00 ,-1.4848785,-11.913681,3.3104706
1518196829523.00 ,5.4372406,-11.351913,-1.747818
1518196829725.00 ,-2.7369537,-7.28862,-1.5240631
1518196829926.00 ,-1.5729523,-9.1905365,-0.94325256
1518196830127.00 ,0.63365173,-9.297653,-0.86231995
1518196830329.00 ,-0.3184967,-9.233383,-1.0075226
1518196830532.00 ,-0.006668091,-9.354782,-1.2265167
1518196830732.00 ,1.1406708,-9.616623,-0.73139954
1518196830935.00 ,0.6050873,-11.151962,-0.824234
1518196831136.00 ,2.4832,-10.671127,-1.3836212
1518196831337.00 ,2.1737518,-9.511887,-0.94325256
1518196831538.00 ,2.7355194,-9.495224,-0.7813873
1518196831740.00 ,2.578415,-9.245285,-0.91944885
1518196831941.00 ,2.199936,-9.40477,0.14219666
1518196832141.00 ,3.0973358,-10.275986,-1.3598175
1518196832345.00 ,3.944748,-8.873947,-1.2431793
1518196832545.00 ,3.4948578,-8.89299,-0.6671295
1518196832747.00 ,2.566513,-9.53093,-1.0694122
1518196832949.00 ,4.2684784,-8.950119,-0.86946106
1518196833149.00 ,2.6069794,-9.033432,-1.0503693
1518196833352.00 ,1.2763519,-9.809433,-0.62190247
1518196833553.00 ,1.995224,-9.547592,-0.74806213
1518196833753.00 ,2.392746,-8.983444,-1.4217072
1518196833956.00 ,1.7262421,-9.185776,-1.2003326
1518196834158.00 ,1.5881805,-9.438095,-0.8313751
1518196834359.00 ,1.3072968,-9.549973,-1.645462
1518196834560.00 ,0.5122528,-9.46666,-1.4835968
1518196834760.00 ,-0.02571106,-9.185776,-1.7002106
1518196834962.00 ,-0.23518372,-9.478561,-1.8811188
1518196835163.00 ,0.167099,-9.280991,-1.7240143
1518196835366.00 ,0.9669037,-9.264328,-1.6859283
1518196835568.00 ,1.7262421,-9.53331,-1.0598907
1518196835769.00 ,1.1121063,-9.333359,-0.70521545
1518196835970.00 ,1.6667328,-9.5047455,-0.3791046
1518196836172.00 ,2.1213837,-9.757065,-0.60523987
1518196836372.00 ,2.0166473,-8.935837,-0.9503937
1518196836574.00 ,1.7167206,-9.383347,-0.8980255
1518196836776.00 ,2.1951752,-9.304794,-1.1313019
1518196836977.00 ,1.9904633,-9.497604,-0.69569397
1518196837179.00 ,2.078537,-9.354782,-0.90278625
1518196837380.00 ,2.6807709,-9.847519,-0.92658997
1518196837581.00 ,2.1285248,-9.445236,-0.92658997
1518196837783.00 ,1.3644257,-8.907272,-0.907547
1518196837985.00 ,2.0547333,-9.08342,-1.138443
1518196838186.00 ,1.8428802,-9.314316,-0.759964
1518196838388.00 ,2.1332855,-9.604721,-0.95277405
1518196838589.00 ,1.995224,-9.654709,-0.95991516
1518196838791.00 ,1.7262421,-9.476181,-0.98609924
1518196838991.00 ,1.0811615,-9.671371,-0.49098206
1518196839193.00 ,1.995224,-9.233383,-0.8075714
1518196839393.00 ,1.7310028,-9.40477,-0.92897034
1518196839596.00 ,1.7476654,-9.366684,-1.0598907
1518196839796.00 ,1.9404755,-9.433334,-1.0337067
1518196839997.00 ,1.8952484,-9.40239,-1.157486
1518196840199.00 ,1.8190765,-9.459518,-1.1598663
1518196840401.00 ,1.9047699,-9.376205,-1.0979767
1518196840602.00 ,1.8809662,-9.369064,-1.0479889
1518196840805.00 ,1.949997,-9.423813,-0.8932648
1518196841005.00 ,1.635788,-9.523788,-1.7716217
1518196841207.00 ,1.8976288,-8.562119,-3.2403107
1518196841409.00 ,2.9783173,-8.007492,-4.204361
1518196841609.00 ,2.0999603,-8.912033,-2.550003
1518196841812.00 ,1.0002289,-8.693039,-2.2762604
1518196842012.00 ,3.4686737,-9.990341,-0.59809875
1518196842215.00 ,3.7733612,-9.2548065,-0.11488342
1518196842416.00 ,3.8257294,-9.173874,-0.7932892
1518196842617.00 ,2.2475433,-9.192917,-0.51716614
1518196842819.00 ,2.8140717,-11.318588,1.4109344
1518196843019.00 ,-3.2058868,-10.133163,-0.08869934
1518196843222.00 ,0.31944275,-7.050583,-1.959671
1518196843423.00 ,0.41703796,-7.705185,-3.7140045
1518196843625.00 ,-0.035232544,-9.350021,-5.1255646
1518196843826.00 ,0.30039978,-9.226242,-0.3719635
1518196844026.00 ,1.5929413,-9.133408,-1.5930939
1518196844228.00 ,1.6548309,-8.95726,-2.0072784
1518196844429.00 ,3.4948578,-9.159592,0.26597595
1518196844632.00 ,-0.38752747,-10.618759,-0.907547
1518196844834.00 ,1.0859222,-9.192917,0.88487244
1518196845034.00 ,-2.0347443,-10.466415,-1.2646027
1518196845235.00 ,2.6712494,-4.9130096,-3.337906
1518196845437.00 ,-4.8150177,-8.70256,-2.6761627
1518196845638.00 ,4.3065643,-7.890854,1.2086029
1518196845841.00 ,1.6548309,-8.814438,0.38975525
1518196846041.00 ,2.3379974,-9.561874,-0.21485901
1518196846243.00 ,2.0880585,-8.57402,0.27311707
1518196846445.00 ,0.59080505,-9.59758,0.77537537
1518196846647.00 ,2.5093842,-10.3259735,1.4537811
1518196846848.00 ,0.6384125,-9.861801,-0.23628235
1518196847048.00 ,1.2239838,-9.704697,-1.9668121
1518196847251.00 ,2.559372,-5.5842743,-3.0522614
1518196847452.00 ,0.2980194,-8.476425,-3.7282867
1518196847652.00 ,4.7183685,-11.220993,-0.88612366
1518196847854.00 ,2.6760101,-9.142929,-1.9549103
1518196848056.00 ,1.7071991,-9.235764,0.32310486
1518196848257.00 ,3.5186615,-9.297653,-0.16487122
1518196848459.00 ,-0.42799377,-11.273361,-0.098220825
1518196848659.00 ,-1.0088043,-10.028427,-1.4883575
1518196848862.00 ,3.3210907,-9.221481,-3.5807037
1518196849064.00 ,2.2546844,-7.8004,-3.1950836
1518196849263.00 ,1.6691132,-8.424057,-3.3402863
1518196849465.00 ,2.8854828,-9.695175,-1.0289459
1518196849668.00 ,-0.09474182,-10.440231,-1.6216583
1518196849869.00 ,2.566513,-9.373825,-0.8932648
1518196850071.00 ,3.0259247,-8.807297,0.772995
1518196850271.00 ,-1.6324615,-12.570663,-4.6256866
1518196850472.00 ,-0.1709137,-6.1769867,-2.2310333
1518196850674.00 ,-0.12568665,-9.542831,-4.7351837
1518196850876.00 ,2.6664886,-7.3552704,-2.40242
1518196851077.00 ,1.6643524,-9.730881,-1.3288727
1518196851279.00 ,4.4089203,-8.881088,0.13505554
1518196851480.00 ,3.2377777,-9.247665,-0.69807434
1518196851681.00 ,2.8973846,-9.373825,-0.9146881
1518196851884.00 ,3.7900238,-8.888229,-0.7909088
1518196852084.00 ,2.964035,-9.59758,-1.1122589
1518196852287.00 ,3.3948822,-9.378586,-0.6290436
1518196852487.00 ,3.2877655,-9.954636,-0.31007385
1518196852688.00 ,2.778366,-8.519272,-0.5695343
1518196852891.00 ,2.4808197,-10.487839,-0.6861725
1518196853092.00 ,3.906662,-8.983444,-0.43623352
1518196853294.00 ,2.925949,-9.65947,-0.56477356
1518196853494.00 ,3.4996185,-9.171494,-0.8670807
1518196853697.00 ,3.7995453,-8.754929,-0.50764465
1518196853898.00 ,3.7162323,-8.976303,-0.5385895
1518196854099.00 ,3.906662,-8.940598,-0.9480133
1518196854301.00 ,3.335373,-8.933456,-0.7075958
1518196854501.00 ,3.5162811,-8.926315,-0.7194977
1518196854704.00 ,3.6448212,-8.845383,-0.4862213
1518196854904.00 ,3.6924286,-9.173874,-0.65760803
1518196855106.00 ,3.694809,-9.045334,-0.6504669
1518196855307.00 ,3.6448212,-8.988205,-0.6266632
1518196855508.00 ,3.720993,-9.247665,-0.55049133
1518196855711.00 ,3.6329193,-9.054855,-0.50764465
1518196855913.00 ,3.618637,-9.111984,-0.65522766
1518196856114.00 ,3.5829315,-9.078659,-0.56477356
1518196856315.00 ,3.618637,-9.050095,-0.5433502
1518196856517.00 ,3.7709808,-8.985825,-0.53144836
1518196856717.00 ,3.720993,-9.045334,-0.5028839
1518196856919.00 ,3.6971893,-9.097702,-0.56715393
1518196857121.00 ,3.7281342,-9.061996,-0.54096985
1518196857322.00 ,3.7281342,-9.0239105,-0.63142395
1518196857524.00 ,3.7495575,-9.000107,-0.4552765
1518196857725.00 ,3.6900482,-8.95488,-0.43623352
1518196857927.00 ,3.70195,-9.100082,-0.49336243
1518196858127.00 ,3.70195,-9.076279,-0.46717834
1518196858328.00 ,3.6257782,-9.028671,-0.5623932
1518196858531.00 ,3.720993,-9.073898,-0.49098206
1518196858733.00 ,3.7090912,-9.123886,-0.46955872
1518196858934.00 ,3.6519623,-9.0858,-0.42433167
1518196859135.00 ,3.7709808,-9.045334,-0.50050354
1518196859336.00 ,3.7305145,-9.045334,-0.5433502
1518196859537.00 ,3.7257538,-9.073898,-0.50764465
1518196859738.00 ,3.694809,-9.08342,-0.5052643
1518196859941.00 ,3.7900238,-8.916794,-0.43623352
1518196860143.00 ,3.6448212,-9.0429535,-0.60762024
1518196860343.00 ,4.72789,-9.592819,-0.87184143
1518196860544.00 ,3.76622,-8.866806,-0.83851624
1518196860747.00 ,3.3282318,-9.181015,-0.90278625
1518196860947.00 ,3.3306122,-9.642807,-1.0337067
1518196861149.00 ,2.8783417,-9.335739,-0.87184143
1518196861352.00 ,3.1068573,-9.14769,-0.7980499
1518196861553.00 ,2.4998627,-9.231003,-0.7909088
1518196861754.00 ,2.7093353,-9.290512,-0.70521545
1518196861956.00 ,2.6593475,-9.354782,-0.8480377
1518196862157.00 ,1.7928925,-8.193161,-1.1765289
1518196862357.00 ,1.661972,-19.745102,-4.2638702
1518196862560.00 ,-0.23756409,-5.786606,-1.1812897
1518196862762.00 ,3.1996918,-0.86875916,1.779892
1518196862963.00 ,7.517685,-29.561752,-12.53566
1518196863164.00 ,-9.230606,5.2940216,0.70158386
1518196863364.00 ,3.4948578,1.0069733,-2.1024933
1518196863566.00 ,0.76457214,-22.218307,-6.206253
1518196863768.00 ,-1.2611237,1.9948273,-3.2474518
1518196863970.00 ,-1.6253204,-9.666611,-11.5073395
1518196864171.00 ,-2.7607574,-7.909897,-2.133438
1518196864373.00 ,1.8000336,-3.0467987,4.122177
1518196864574.00 ,-9.687637,-38.84163,-6.8441925
1518196864776.00 ,-5.219681,6.874588,1.2609711
1518196864977.00 ,2.1499481,-0.38078308,-8.593765
1518196865177.00 ,-9.9709015,-20.711533,-5.8301544
1518196865380.00 ,0.6669769,1.261673,-3.5545197
1518196865581.00 ,-11.934708,-18.00267,-13.9257965
1518196865783.00 ,-2.0085602,3.5277863,3.1747894
1518196865983.00 ,1.2358856,-3.2396088,-0.26960754
1518196866185.00 ,-9.049698,-20.404465,-12.114334
1518196866386.00 ,-5.3220367,3.3730621,1.5418549
1518196866587.00 ,1.3382416,-4.1036835,-2.857071
1518196866790.00 ,-0.6898346,-8.407394,2.101242
1518196866991.00 ,0.6693573,-0.3950653,4.7529755
1518196867193.00 ,-0.6160431,-26.964767,-10.4171295
1518196867394.00 ,3.4139252,-0.87590027,-1.5312042
1518196867596.00 ,0.5479584,-0.09751892,4.564926
1518196867797.00 ,5.8538055,-30.018784,-6.403824
1518196867998.00 ,-2.6203156,7.4553986,-1.728775
1518196868200.00 ,0.007614136,-4.1298676,3.986496
1518196868401.00 ,-6.509842,-23.994064,-7.8439484
1518196868603.00 ,-2.5251007,5.432083,0.67778015
1518196868804.00 ,1.5215302,-2.189865,-1.6216583
1518196869004.00 ,-0.9850006,-20.89006,-6.846573
1518196869207.00 ,-0.67555237,5.34877,1.151474
1518196869409.00 ,-3.7176666,-2.8587494,7.9998016
1518196869610.00 ,-6.600296,-18.595383,-7.34169
1518196869811.00 ,-2.3394318,3.089798,3.1224213
1518196870012.00 ,-8.428421,-20.797226,-5.0612946
1518196870214.00 ,1.1906586,-9.40477,-2.3857574
1518196870414.00 ,2.7188568,-0.08085632,-2.5523834
1518196870615.00 ,-9.956619,-33.865463,-12.0334015
1518196870818.00 ,-2.0990143,2.52565,2.2845306
1518196871019.00 ,0.005233765,-4.7844696,2.3940277
1518196871221.00 ,7.0725555,-19.887924,-6.0110626
1518196871422.00 ,0.37419128,-7.255295,0.62065125
1518196871623.00 ,2.2237396,-10.442612,-0.46003723
1518196871825.00 ,2.1975555,-9.935593,-0.4290924
1518196872026.00 ,0.8669281,-9.671371,-0.82185364
1518196872229.00 ,0.6622162,-9.554733,-0.5433502
1518196872430.00 ,1.2097015,-9.521408,-1.2146149
1518196872631.00 ,1.2525482,-9.609482,-0.5766754
1518196872832.00 ,1.0335541,-9.359543,-0.6266632
1518196873033.00 ,0.84788513,-9.721359,-1.0265656
1518196873235.00 ,1.8000336,-10.540207,-1.0170441
1518196873437.00 ,0.88597107,-10.035568,-0.9575348
1518196873639.00 ,1.6000824,-9.552353,-1.0313263
1518196873840.00 ,1.2692108,-9.3381195,-0.95277405
1518196874040.00 ,1.3358612,-9.430954,-1.0408478
1518196874243.00 ,1.4620209,-9.499985,-0.9480133
1518196874444.00 ,1.2477875,-9.478561,-0.888504
1518196874646.00 ,1.2430267,-9.4857025,-1.0170441
1518196874847.00 ,1.2216034,-9.492844,-0.89564514
1518196875049.00 ,1.3882294,-9.490463,-0.9670563
1518196875250.00 ,1.2477875,-9.53569,-0.81947327
1518196875451.00 ,1.2287445,-9.46904,-0.8170929
1518196875652.00 ,1.4191742,-9.5047455,-0.824234
1518196875854.00 ,1.193039,-9.4857025,-0.888504
1518196876055.00 ,1.3977509,-9.521408,-0.8932648
1518196876257.00 ,1.2620697,-9.442856,-0.83851624
1518196876458.00 ,1.3525238,-9.457138,-0.9170685
1518196876659.00 ,1.2596893,-9.490463,-0.90278625
1518196876860.00 ,1.3144379,-9.435715,-0.76234436
1518196877062.00 ,1.283493,-9.509506,-0.8266144
1518196877264.00 ,1.283493,-9.583298,-0.8504181
1518196877466.00 ,1.2168427,-9.538071,-0.8313751
1518196877667.00 ,1.3239594,-9.464279,-0.8932648
1518196877869.00 ,1.2549286,-9.502365,-0.9646759
1518196878070.00 ,1.3263397,-9.46904,-0.9051666
1518196878270.00 ,1.3239594,-9.511887,-1.0313263
1518196878472.00 ,1.3977509,-9.478561,-0.90992737
1518196878673.00 ,1.4596405,-9.46904,-1.0384674
1518196878876.00 ,1.321579,-9.461899,-1.0170441
1518196879077.00 ,1.340622,-9.564255,-0.824234
1518196879278.00 ,1.2953949,-9.492844,-0.9670563
1518196879479.00 ,1.2335052,-9.511887,-0.8813629
1518196879680.00 ,1.3168182,-9.523788,-0.93611145
1518196879883.00 ,1.4191742,-9.526169,-1.0003815
1518196880084.00 ,1.366806,-9.483322,-0.8147125
1518196880285.00 ,1.3525238,-9.46666,-0.8980255
1518196880486.00 ,1.404892,-9.499985,-0.9884796
1518196880687.00 ,1.3977509,-9.457138,-0.9480133
1518196880891.00 ,1.366806,-9.46904,-0.90278625
1518196881092.00 ,1.4001312,-9.46904,-0.9741974
1518196881293.00 ,1.2906342,-9.461899,-1.0075226
1518196881494.00 ,1.340622,-9.511887,-0.84565735
1518196881696.00 ,1.4644012,-9.40715,-1.0241852
1518196881896.00 ,1.3453827,-9.492844,-0.96229553
1518196882098.00 ,1.5001068,-9.445236,-1.0979767
1518196882299.00 ,1.4263153,-9.459518,-1.0384674
1518196882500.00 ,1.4477386,-9.53093,-0.9218292
1518196882703.00 ,1.4001312,-9.53093,-0.9480133
1518196882904.00 ,1.3810883,-9.480942,-1.1289215
1518196883106.00 ,1.4405975,-9.464279,-1.0241852
1518196883306.00 ,-0.58747864,-11.406662,-1.562149
1518196883507.00 ,2.3403778,-3.0206146,-3.114151
1518196883710.00 ,4.3708344,-8.369308,-10.707535
1518196883912.00 ,0.8812103,6.1723785,1.4537811
1518196884113.00 ,19.662338,-27.121872,-10.29335
1518196884315.00 ,1.3263397,5.374954,7.649887
1518196884516.00 ,5.087326,-7.840866,-11.462112
1518196884717.00 ,3.3663177,-0.17845154,8.140244
1518196884919.00 ,14.170822,-28.176376,-0.5552521
1518196885120.00 ,-8.03804,-0.16178894,-0.36244202
1518196885321.00 ,8.105637,-18.228806,-11.835831
1518196885523.00 ,3.1592255,3.3992462,1.8560638
1518196885725.00 ,17.403366,-29.171371,4.300705
1518196885925.00 ,1.7786102,2.52565,6.0883636
1518196886127.00 ,5.8038177,-9.140549,-11.783463
1518196886329.00 ,6.8345184,0.016738892,-3.5664215
1518196886530.00 ,-4.150894,-22.953842,-8.636612
1518196886731.00 ,-5.15065,-0.8544769,3.9388885
1518196886933.00 ,5.632431,-18.77153,-13.230728
1518196887133.00 ,7.7200165,-2.7516327,-3.81398
1518196887335.00 ,-19.58522,-38.84163,-30.395584
1518196887536.00 ,0.9169159,1.9091339,2.7582245
1518196887739.00 ,5.1992035,-16.750595,-14.021011
1518196887939.00 ,7.7057343,-0.2808075,5.7979584
1518196888142.00 ,14.4874115,-26.186386,-2.2643585
1518196888342.00 ,-9.532913,4.4466095,0.06840515
1518196888543.00 ,8.893539,-3.1991425,-16.77272
1518196888746.00 ,2.4546356,-1.7733002,-9.607803
1518196888947.00 ,20.128891,-26.733871,2.7368011
1518196889149.00 ,-2.7155304,3.687271,1.8298798
1518196889349.00 ,7.339157,-6.2126923,-10.921768
1518196889552.00 ,0.83122253,4.827469,0.6230316
1518196889753.00 ,18.238876,-30.097336,-12.21669
1518196889955.00 ,-1.827652,0.10005188,2.582077
1518196890156.00 ,6.9821014,-15.798447,-10.512344
1518196890358.00 ,7.0201874,-2.4302826,-1.3360138
1518196890559.00 ,2.9997406,-32.63005,-38.463852
1518196890761.00 ,-10.953995,-5.788986,-3.076065
1518196890962.00 ,11.159653,-7.8242035,-15.656326
1518196891162.00 ,6.1418304,-12.942001,-1.940628
1518196891364.00 ,-6.6621857,-34.148727,4.160263
1518196891566.00 ,0.6788788,-2.5326385,4.6768036
1518196891768.00 ,-5.5695953,-18.057419,-11.088394
1518196891969.00 ,0.8097992,-9.880844,-4.1186676
1518196892169.00 ,-28.663956,-28.343002,-2.1405792
1518196892371.00 ,-5.638626,-12.235031,2.0012665
1518196892572.00 ,1.052597,-19.528488,-25.03975
1518196892774.00 ,0.86216736,-11.132919,-0.92897034
1518196892975.00 ,-5.124466,-5.051071,-9.674454
1518196893178.00 ,5.8466644,-12.0707855,-6.4799957
1518196893379.00 ,3.0068817,-13.199081,-14.328079
1518196893581.00 ,3.8923798,-9.780869,-6.0610504
1518196893781.00 ,-3.5319977,2.9588776,-0.81947327
1518196893983.00 ,1.3525238,-5.574753,-6.0800934
1518196894185.00 ,6.8868866,-9.002487,-2.4262238
1518196894385.00 ,4.925461,-8.95726,-2.1381989
1518196894586.00 ,5.772873,-6.5673676,-2.3857574
1518196894789.00 ,6.2894135,-7.7361298,-1.9668121
1518196894991.00 ,5.7443085,-6.698288,-2.5214386
1518196895192.00 ,6.3084564,-7.550461,-1.3026886
1518196895393.00 ,5.36821,-8.324081,-1.7382965
1518196895595.00 ,5.518173,-7.281479,-1.4645538
1518196895795.00 ,6.2822723,-7.043442,-1.0503693
1518196895998.00 ,6.3274994,-7.3576508,-0.8075714
1518196896199.00 ,6.52507,-7.424301,-1.4169464
1518196896401.00 ,6.503647,-7.338608,-1.1931915
1518196896602.00 ,6.672653,-7.2838593,-1.1646271
1518196896802.00 ,6.556015,-7.405258,-1.1051178
1518196897003.00 ,6.3489227,-7.60997,-0.93611145
1518196897206.00 ,6.370346,-7.640915,-1.0503693
1518196897407.00 ,6.3465424,-7.5623627,-0.87898254
1518196897608.00 ,6.33226,-7.564743,-0.89564514
1518196897810.00 ,6.5322113,-7.5409393,-0.8099518
1518196898011.00 ,6.4322357,-7.583786,-0.86946106
1518196898213.00 ,6.517929,-7.507614,-0.7337799
1518196898414.00 ,6.291794,-7.750412,-0.9480133
1518196898617.00 ,6.3346405,-7.493332,-0.843277
1518196898818.00 ,6.3227386,-7.595688,-0.76472473
1518196899018.00 ,6.39653,-7.6432953,-1.0384674
1518196899221.00 ,6.4108124,-7.6194916,-0.7909088
1518196899422.00 ,6.4250946,-7.6194916,-0.9170685
1518196899624.00 ,6.3679657,-7.6123505,-0.907547
1518196899824.00 ,6.4560394,-7.583786,-0.97657776
1518196900025.00 ,6.441757,-7.450485,-0.9670563
1518196900226.00 ,6.5512543,-7.429062,-0.971817
1518196900430.00 ,6.503647,-7.421921,-0.9670563
1518196900631.00 ,6.52507,-7.5433197,-0.90278625
1518196900832.00 ,6.420334,-7.590927,-0.99086
1518196901033.00 ,6.4488983,-7.5457,-0.9646759
1518196901235.00 ,6.4679413,-7.467148,-0.9575348
1518196901437.00 ,6.5131683,-7.390976,-0.9741974
1518196901638.00 ,6.1227875,-7.8004,-1.2003326
1518196901839.00 ,6.3084564,-7.5599823,-1.0503693
1518196902040.00 ,6.2513275,-7.6432953,-0.8813629
1518196902242.00 ,6.298935,-7.5623627,-1.0575104
1518196902443.00 ,6.4512787,-7.4385834,-0.9480133
1518196902644.00 ,6.4179535,-7.6718597,-1.0146637
1518196902846.00 ,6.163254,-7.757553,-0.98609924
1518196903047.00 ,6.356064,-7.6052094,-0.85517883
1518196903248.00 ,6.4822235,-7.5290375,-0.9004059
1518196903451.00 ,6.479843,-7.5433197,-0.87184143
1518196903652.00 ,6.4298553,-7.6075897,-0.843277
1518196903854.00 ,6.5607758,-7.4457245,-0.7075958
1518196904054.00 ,6.541733,-7.429062,-1.1313019
1518196904255.00 ,6.1537323,-7.2457733,-0.26722717
1518196904457.00 ,6.9487762,-6.9458466,-0.9551544
1518196904658.00 ,7.1439667,-6.8220673,-0.08155823
1518196904861.00 ,8.791183,-5.6675873,0.8396454
1518196905063.00 ,3.9471283,-9.435715,0.4849701
1518196905264.00 ,4.8707123,-6.588791,-1.4621735
1518196905465.00 ,5.1730194,-7.121994,-3.4950104
1518196905667.00 ,7.03685,-5.903244,-3.6473541
1518196905868.00 ,6.2632294,-9.849899,1.0514984
1518196906070.00 ,9.629074,-5.9175262,1.0634003
1518196906270.00 ,7.0915985,-6.9077606,0.753952
1518196906472.00 ,3.0259247,-10.668747,-1.074173
1518196906674.00 ,7.3153534,-5.5390472,-2.3095856
1518196906875.00 ,6.9963837,-6.3436127,-3.3759918
1518196907076.00 ,6.6036224,-5.9437103,-4.094864
1518196907278.00 ,3.2306366,-10.890121,-3.0070343
1518196907478.00 ,6.946396,-6.7601776,0.15171814
1518196907680.00 ,7.172531,-6.917282,-0.6361847
1518196907882.00 ,6.2203827,-7.4719086,-1.5145416
1518196908083.00 ,6.4488983,-7.7861176,0.8896332
1518196908284.00 ,7.9009247,-9.228622,-0.47669983
1518196908485.00 ,3.8828583,-9.640427,0.9967499
1518196908687.00 ,8.546005,-6.769699,-2.4262238
1518196908890.00 ,7.3558197,-2.304123,-1.793045
1518196909090.00 ,5.43486,-11.023422,-0.5385895
1518196909291.00 ,9.110153,-6.6816254,1.25383
1518196909493.00 ,7.120163,-6.122238,0.8396454
1518196909695.00 ,7.3343964,-6.622116,0.7158661
1518196909897.00 ,7.1796722,-6.857773,0.15647888
1518196910097.00 ,4.8088226,-8.502609,0.8229828
1518196910298.00 ,7.153488,-7.6052094,-0.90992737
1518196910500.00 ,6.0894623,-8.819199,-2.6214142
1518196910703.00 ,4.3922577,-2.894455,-2.5285797
1518196910904.00 ,6.3727264,-10.192673,-7.058426
1518196911105.00 ,9.5481415,-4.653549,-2.6547394
1518196911307.00 ,7.2129974,-7.1243744,-1.0646515
1518196911507.00 ,6.3655853,-7.859909,-0.6004791
1518196911709.00 ,7.3867645,-7.3362274,0.68730164
1518196911911.00 ,6.689316,-8.935837,1.9131927
1518196912113.00 ,3.8638153,-9.152451,0.19456482
1518196912314.00 ,5.5729218,-6.6173553,0.17790222
1518196912514.00 ,5.401535,-7.7861176,-2.2119904
1518196912717.00 ,5.870468,-6.77446,-2.8166046
1518196912917.00 ,7.134445,-6.184128,-3.3593292
1518196913119.00 ,3.8923798,-9.621384,1.215744
1518196913320.00 ,5.727646,-8.481186,0.9610443
1518196913522.00 ,6.708359,-7.0529633,0.10173035
1518196913723.00 ,6.858322,-7.679001,0.34214783
1518196913925.00 ,3.6781464,-7.6385345,-0.08155823
1518196914126.00 ,6.9321136,-6.903,-2.4428864
1518196914328.00 ,5.8038177,-6.3483734,-1.8406525
1518196914529.00 ,6.5012665,-8.071762,-3.121292
1518196914731.00 ,7.991379,-6.6197357,-1.0027618
1518196914933.00 ,6.1561127,-8.333603,-1.3788605
1518196915134.00 ,6.1156464,-8.100327,-1.2836456
1518196915336.00 ,6.484604,-7.531418,-0.71235657
1518196915537.00 ,6.3394012,-7.6456757,-0.45765686
1518196915738.00 ,6.144211,-7.8932343,-1.0170441
1518196915940.00 ,6.755966,-7.6456757,-0.9384918
1518196916141.00 ,6.313217,-7.9527435,-0.4052887
1518196916343.00 ,6.3274994,-7.6266327,-0.45051575
1518196916544.00 ,6.098984,-7.788498,-0.381485
1518196916746.00 ,6.2203827,-7.821823,-0.6266632
1518196916947.00 ,6.632187,-7.507614,-0.63142395
1518196917149.00 ,6.544113,-7.60997,-0.5623932
1518196917350.00 ,6.3346405,-7.6766205,-0.28388977
1518196917551.00 ,6.5655365,-7.4719086,0.09220886
1518196917753.00 ,6.1941986,-7.886093,-0.031570435
1518196917954.00 ,6.191818,-7.8361053,-0.07917786
1518196918156.00 ,6.151352,-7.781357,-0.27674866
1518196918357.00 ,6.4250946,-7.719467,-0.28388977
1518196918557.00 ,6.13945,-7.886093,-0.23628235
1518196918759.00 ,6.287033,-7.7147064,-0.21723938
1518196918961.00 ,6.2584686,-7.762314,-0.12916565
1518196919163.00 ,6.298935,-7.6432953,-0.2315216
1518196919364.00 ,6.389389,-7.6647186,-0.13392639
1518196919566.00 ,6.291794,-7.762314,-0.2481842
1518196919767.00 ,6.52507,-7.6718597,-0.24342346
1518196919969.00 ,6.356064,-7.700424,-0.10774231
1518196920170.00 ,6.337021,-7.724228,-0.11012268
1518196920371.00 ,6.3727264,-7.731369,-0.12678528
1518196920573.00 ,6.272751,-7.750412,-0.20057678
1518196920774.00 ,6.3394012,-7.7337494,-0.21485901
1518196920976.00 ,6.2775116,-7.8242035,-0.17677307
1518196921177.00 ,6.2894135,-7.7456512,-0.13392639
1518196921379.00 ,6.377487,-7.724228,-0.1743927
1518196921579.00 ,6.3036957,-7.762314,-0.19819641
1518196921782.00 ,6.317978,-7.7028046,-0.10298157
1518196921983.00 ,6.313217,-7.7075653,-0.15296936
1518196922184.00 ,6.39415,-7.7075653,-0.3219757
1518196922385.00 ,6.3608246,-7.762314,-0.13868713
1518196922587.00 ,6.3227386,-7.6837616,-0.117263794
1518196922787.00 ,6.3227386,-7.681381,-0.2077179
1518196922990.00 ,6.3870087,-7.7480316,-0.14820862
1518196923192.00 ,6.3655853,-7.6766205,-0.24342346
1518196923393.00 ,6.3489227,-7.764694,-0.14820862
1518196923593.00 ,6.3989105,-7.679001,-0.15534973
1518196923796.00 ,6.20372,-7.8170624,-0.23390198
1518196923997.00 ,6.310837,-7.7670746,-0.17915344
1518196924197.00 ,6.356064,-7.667099,-0.076797485
1518196924400.00 ,6.389389,-7.655197,-0.117263794
1518196924602.00 ,6.3417816,-7.698044,-0.09107971
1518196924802.00 ,6.4488983,-7.7266083,-0.117263794
1518196925003.00 ,6.3846283,-7.6504364,-0.21961975
1518196925205.00 ,6.3298798,-7.6837616,-0.07203674
1518196925408.00 ,6.248947,-7.9146576,-0.28388977
1518196925609.00 ,6.5917206,-7.681381,0.10411072
1518196925810.00 ,6.5084076,-7.6956635,-0.46955872
1518196926010.00 ,6.4131927,-7.7266083,-0.36244202
1518196926213.00 ,4.361313,-7.2481537,-2.4286041
1518196926414.00 ,10.466965,-12.851547,-5.437393
1518196926616.00 ,1.4144135,-4.8558807,-1.6049957
1518196926817.00 ,1.7405243,-1.0568085,0.07316589
1518196927018.00 ,7.8937836,-15.591354,-9.943436
1518196927219.00 ,-1.577713,0.93556213,-1.8001862
1518196927422.00 ,35.484665,-35.869736,-3.7901764
1518196927623.00 ,-10.247025,1.0641022,-2.2834015
1518196927824.00 ,-4.1985016,-15.265244,-11.0455475
1518196928025.00 ,7.210617,-6.8244476,-4.0472565
1518196928227.00 ,2.4546356,0.78559875,1.9108124
1518196928429.00 ,19.717087,-29.906906,1.1681366
1518196928630.00 ,-4.7864532,4.6132355,2.3011932
1518196928832.00 ,1.1311493,-30.856674,-10.362381
1518196929032.00 ,2.649826,-7.1576996,-2.966568
1518196929234.00 ,0.37895203,-2.4636078,-1.3812408
1518196929435.00 ,19.150558,-35.546005,0.9110565
1518196929637.00 ,-4.072342,3.1778717,1.4514008
1518196929839.00 ,7.8556976,-20.194992,-7.013199
1518196930039.00 ,0.7836151,-2.8801727,-1.0456085
1518196930242.00 ,2.5117645,-5.4771576,-2.1405792
1518196930443.00 ,7.324875,-34.04875,-6.853714
1518196930644.00 ,-1.8133698,5.103592,1.1395721
1518196930846.00 ,-4.803116,-29.235641,6.0740814
1518196931048.00 ,-0.2851715,-2.5135956,0.018417358
1518196931249.00 ,0.69792175,-4.601181,-0.4052887
1518196931450.00 ,-0.063797,-15.203354,-0.96229553
1518196931652.00 ,0.04093933,7.195938,0.7158661
1518196931852.00 ,-3.80336,-37.80974,-7.289322
1518196932054.00 ,-2.1156769,1.197403,2.1988373
1518196932257.00 ,-2.0918732,-5.658066,-0.7171173
1518196932458.00 ,-0.13044739,-8.802536,-0.8313751
1518196932658.00 ,2.052353,2.6803741,1.863205
1518196932860.00 ,-6.864517,-27.181381,-5.487381
1518196933062.00 ,-4.534134,7.8910065,-1.8239899
1518196933263.00 ,-2.3227692,-3.003952,-1.1170197
1518196933464.00 ,1.00737,-5.7461395,-0.9741974
1518196933665.00 ,4.9111786,1.2973785,1.7132416
1518196933867.00 ,-4.31752,-20.466354,-5.687332
1518196934069.00 ,-1.7752838,12.14711,-6.5609283
1518196934269.00 ,-8.333206,-31.742172,-9.453079
1518196934471.00 ,-2.149002,0.8903351,2.53685
1518196934672.00 ,-0.6898346,-7.7861176,-6.9655914
1518196934875.00 ,-3.5819855,-16.860092,-2.3524323
1518196935076.00 ,-2.141861,11.199722,0.99198914
1518196935278.00 ,3.6900482,-36.300583,4.505417
1518196935478.00 ,-2.2942047,1.7567902,2.184555
1518196935679.00 ,-1.5158234,-10.975815,-11.240738
1518196935881.00 ,-1.1016388,-11.84227,-1.9525299
1518196936083.00 ,-1.2111359,10.002396,3.81987
1518196936285.00 ,10.919235,-31.908798,-0.56715393
1518196936485.00 ,-0.70887756,2.930313,5.1838226
1518196936687.00 ,-0.15663147,-12.649216,0.57780457
1518196936888.00 ,-1.1825714,5.9152985,3.0795746
1518196937090.00 ,21.15245,-31.542221,-4.0424957
1518196937292.00 ,1.0502167,-7.072006,0.57780457
1518196937493.00 ,-0.42799377,-9.923691,-1.0765533
1518196937693.00 ,0.2242279,-8.840622,-1.2788849
1518196937896.00 ,1.2525482,-9.785629,-0.67427063
1518196938098.00 ,1.8595428,-8.985825,-1.5216827
1518196938299.00 ,0.47654724,-8.345505,-0.31007385
1518196938499.00 ,1.3977509,-8.752548,0.7563324
1518196938700.00 ,-0.20185852,-12.853928,3.3628387
1518196938903.00 ,15.915634,-7.788498,2.620163
1518196939105.00 ,1.4644012,-1.5424042,2.5773163
1518196939305.00 ,1.9333344,-0.05467224,8.668686
1518196939507.00 ,8.131821,1.6806183,7.502304
1518196939708.00 ,5.1468353,3.6253815,7.6260834
