Time,AccelX,AccelY,AccelZ
1518198096242.00 ,2.4974823,4.634659,9.254257
1518198096443.00 ,0.91215515,4.156204,8.882919
1518198096645.00 ,0.712204,3.623001,8.878159
1518198096846.00 ,1.5286713,3.8610382,9.194748
1518198097047.00 ,2.7355194,4.044327,8.930527
1518198097249.00 ,3.2996674,0.7427521,2.0964813
1518198097450.00 ,7.974716,-5.8175507,5.68132
1518198097652.00 ,12.273666,-6.5102386,-4.8994293
1518198097853.00 ,6.65123,-6.8863373,-2.0096588
1518198098054.00 ,9.702866,-8.064621,1.7013397
1518198098256.00 ,9.971848,-12.3849945,-3.1546173
1518198098457.00 ,2.5998383,0.33570862,-3.345047
1518198098659.00 ,4.420822,-4.0655975,8.337814
1518198098860.00 ,-1.2135162,-7.7670746,2.6511078
1518198099062.00 ,9.502914,-5.3152924,-0.8004303
1518198099263.00 ,10.18132,-7.9575043,3.986496
1518198099464.00 ,4.894516,-0.73783875,5.7265472
1518198099666.00 ,6.325119,-6.729233,7.3190155
1518198099867.00 ,3.970932,-8.935837,-3.4116974
1518198100069.00 ,5.356308,-1.9161224,0.8634491
1518198100270.00 ,11.183456,-16.603012,-5.582596
1518198100473.00 ,0.7621918,-0.7592621,0.23979187
1518198100675.00 ,14.016098,-15.1367035,-7.258377
1518198100875.00 ,5.0468597,-9.261948,15.314682
1518198101077.00 ,-3.1439972,-3.0848846,-0.6695099
1518198101279.00 ,1.4429779,-13.537094,3.2985687
1518198101481.00 ,-4.4293976,-4.4702606,-6.9132233
1518198101682.00 ,1.0168915,-3.670456,-0.90992737
1518198101882.00 ,11.600021,-16.97435,-10.976517
1518198102083.00 ,9.274399,-1.2377167,-2.5476227
1518198102286.00 ,-1.3039703,-0.08799744,1.9941254
1518198102487.00 ,-0.25898743,-15.410446,-23.594864
1518198102688.00 ,-5.6291046,-6.731613,-21.77388
1518198102889.00 ,2.0047455,-0.39744568,0.0231781
1518198103091.00 ,6.4822235,-8.76445,-3.5140533
1518198103294.00 ,-2.565567,-38.84163,-9.305496
1518198103495.00 ,-5.048294,9.040726,-10.212418
1518198103696.00 ,1.6524506,-6.6316376,-3.7782745
1518198103898.00 ,17.072495,-20.173569,5.976486
1518198104099.00 ,-5.8457184,-2.568344,-6.37764
1518198104299.00 ,-2.058548,-0.14274597,3.5651703
1518198104501.00 ,14.199387,-8.754929,-7.474991
1518198104702.00 ,-0.46846008,-10.256943,-0.48860168
1518198104903.00 ,1.578659,5.3963776,5.0410004
1518198105105.00 ,5.7562103,-8.983444,-3.6164093
1518198105308.00 ,20.107468,-33.53221,-6.327652
1518198105508.00 ,-18.518814,-11.261459,-9.900589
1518198105710.00 ,-4.753128,2.3566437,-6.18721
1518198105912.00 ,4.092331,-7.198166,-4.6185455
1518198106112.00 ,3.797165,-21.132858,2.267868
1518198106313.00 ,-7.9951935,5.3178253,-5.1517487
1518198106516.00 ,-4.143753,-4.3155365,-2.40242
1518198106718.00 ,23.26384,-21.168564,3.377121
1518198106919.00 ,2.2546844,-5.160568,-6.108658
1518198107120.00 ,4.1423187,2.949356,2.786789
1518198107321.00 ,14.204147,-13.556137,-10.921768
1518198107523.00 ,-2.6845856,-2.8325653,-2.826126
1518198107724.00 ,-1.7038727,-2.9039764,0.54447937
1518198107926.00 ,1.6881561,-6.395981,0.15885925
1518198108128.00 ,-0.011428833,-8.466904,-0.66474915
1518198108329.00 ,-0.4827423,-9.354782,-0.18867493
1518198108529.00 ,1.8238373,-10.137924,-0.6171417
1518198108731.00 ,0.7336273,-9.309555,-0.83851624
1518198108932.00 ,-1.55867,-9.392868,-0.39814758
1518198109135.00 ,-0.7469635,-9.7999115,-0.1743927
1518198109336.00 ,-0.49702454,-9.683273,-0.46479797
1518198109538.00 ,-0.904068,-9.495224,-0.62190247
1518198109740.00 ,-1.1302032,-9.673752,-0.25532532
1518198109941.00 ,-0.85884094,-9.483322,-0.15058899
1518198110141.00 ,-1.0111847,-9.483322,-0.14344788
1518198110342.00 ,-0.81837463,-9.609482,-0.20533752
1518198110545.00 ,-0.7802887,-9.576157,-0.055374146
1518198110746.00 ,-0.96595764,-9.576157,-0.2243805
1518198110948.00 ,-0.6255646,-9.909409,-0.34577942
1518198111148.00 ,-0.47798157,-9.557114,-0.21485901
1518198111349.00 ,-0.19233704,-9.666611,-0.53144836
1518198111552.00 ,-0.45417786,-9.6523285,-0.15058899
1518198111754.00 ,-0.34706116,-9.79039,-0.2481842
1518198111955.00 ,-1.3563385,-9.430954,-0.5861969
1518198112156.00 ,-0.33039856,-9.300034,-0.96229553
1518198112357.00 ,0.5693817,-9.714218,-0.8670807
1518198112558.00 ,1.0335541,-9.216721,-0.6837921
1518198112761.00 ,0.78837585,-9.449997,-1.4859772
1518198112962.00 ,0.51701355,-9.59758,-0.96943665
1518198113163.00 ,0.4551239,-9.46666,-1.1051178
1518198113365.00 ,0.23612976,-9.488083,-0.9575348
1518198113566.00 ,0.5527191,-9.552353,-0.8813629
1518198113767.00 ,0.23136902,-9.47142,-0.7504425
1518198113968.00 ,0.3313446,-9.540451,-0.971817
1518198114171.00 ,0.45274353,-9.419052,-0.9741974
1518198114371.00 ,0.4384613,-9.499985,-0.9337311
1518198114572.00 ,0.2004242,-9.454758,-0.8480377
1518198114773.00 ,0.3884735,-9.5047455,-0.9503937
1518198114976.00 ,0.48130798,-9.53569,-0.93611145
1518198115178.00 ,0.69078064,-9.492844,-1.1289215
1518198115378.00 ,0.5360565,-9.5690155,-0.9170685
1518198115580.00 ,0.6360321,-9.380966,-1.0694122
1518198115781.00 ,0.05760193,-9.380966,-0.907547
1518198115983.00 ,0.75505066,-9.554733,-1.1527252
1518198116185.00 ,0.6050873,-9.47142,-1.0836945
1518198116386.00 ,0.41703796,-9.507126,-0.676651
1518198116587.00 ,0.37657166,-9.511887,-0.7504425
1518198116789.00 ,0.462265,-9.628525,-0.86231995
1518198116991.00 ,0.55033875,-9.47142,-0.9170685
1518198117192.00 ,0.65031433,-9.426193,-0.8647003
1518198117392.00 ,0.6050873,-9.66423,-1.2122345
1518198117595.00 ,0.9431,-9.459518,-1.3621979
1518198117795.00 ,0.81455994,-9.542831,-1.4169464
1518198117998.00 ,0.8026581,-9.509506,-1.3836212
1518198118200.00 ,1.0406952,-9.46666,-1.3383942
1518198118400.00 ,0.82170105,-9.4857025,-1.1408234
1518198118601.00 ,1.0406952,-9.461899,-1.2550812
1518198118802.00 ,0.40751648,-9.430954,-1.1074982
1518198119005.00 ,0.5693817,-9.583298,-1.1765289
1518198119207.00 ,0.82884216,-9.621384,-0.81947327
1518198119408.00 ,0.31230164,-9.3405,-1.3264923
1518198119610.00 ,1.0644989,-9.526169,-0.15534973
1518198119810.00 ,0.4051361,-10.135544,-0.9646759
1518198120012.00 ,-1.244461,-9.526169,-2.421463
1518198120214.00 ,0.25517273,-6.1508026,-3.9377594
1518198120415.00 ,0.84550476,-8.519272,-4.1258087
1518198120617.00 ,-0.1947174,-8.935837,-3.7187653
1518198120817.00 ,-1.7871857,-9.250046,0.18504333
1518198121020.00 ,-0.14472961,-9.461899,-0.95991516
1518198121220.00 ,-1.6086578,-9.766586,1.1276703
1518198121422.00 ,-1.7133942,-8.885849,-0.074417114
1518198121623.00 ,-0.7969513,-10.766342,-2.183426
1518198121825.00 ,2.1856537,-7.8313446,-2.966568
1518198122025.00 ,-0.07569885,-8.238388,-4.2971954
1518198122227.00 ,1.9452362,-11.778,-2.133438
1518198122429.00 ,0.8431244,-9.98558,-1.8906403
1518198122631.00 ,-0.65174866,-12.630173,-0.676651
1518198122831.00 ,0.68125916,-8.455002,-2.7785187
1518198123033.00 ,-0.6231842,-10.1783905,-5.4326324
1518198123235.00 ,1.1906586,-7.7718353,-0.01966858
1518198123437.00 ,-1.154007,-8.264572,-1.305069
1518198123638.00 ,2.0166473,-9.430954,-0.55049133
1518198123840.00 ,-0.5232086,-9.411911,1.9227142
1518198124041.00 ,1.2882538,-8.05986,-0.6695099
1518198124242.00 ,-3.6986237,-8.4335785,1.6299286
1518198124443.00 ,-2.6964874,-9.350021,2.34404
1518198124645.00 ,0.52415466,-9.973679,0.26359558
1518198124847.00 ,-4.155655,-11.642319,-0.27674866
1518198125048.00 ,-0.8231354,-6.6387787,-1.728775
1518198125250.00 ,-2.475113,-11.559006,-2.928482
1518198125451.00 ,0.94548035,-9.8832245,-3.6806793
1518198125653.00 ,-3.6034088,-5.94133,-0.56715393
1518198125854.00 ,-1.5372467,-6.5721283,-2.228653
1518198126055.00 ,-1.2301788,-8.707321,-4.192459
1518198126257.00 ,-4.6150665,-10.211716,-0.8837433
1518198126457.00 ,-0.00428772,-9.319077,1.3847504
1518198126659.00 ,-2.963089,-10.354538,0.50639343
1518198126861.00 ,3.2639618,-7.4647675,-3.0403595
1518198127063.00 ,0.7836151,-8.18364,-4.3805084
1518198127264.00 ,2.0237885,-9.21196,1.9560394
1518198127464.00 ,1.0978241,-9.173874,-1.100357
1518198127666.00 ,1.635788,-9.069138,-0.67189026
1518198127867.00 ,-1.3587189,-8.009872,-1.6764069
1518198128070.00 ,-1.0183258,-7.269577,-2.7689972
1518198128272.00 ,-2.046646,-9.809433,-3.409317
1518198128473.00 ,-2.565567,-8.255051,0.8610687
1518198128673.00 ,-1.8038483,-9.66185,-0.9384918
1518198128875.00 ,1.0430756,-10.502121,1.2324066
1518198129075.00 ,1.5096283,-10.164108,-2.3524323
1518198129278.00 ,-2.6393585,-8.426437,-3.6902008
1518198129480.00 ,-0.6898346,-8.985825,-1.3836212
1518198129681.00 ,-0.101882935,-9.078659,-1.7501984
1518198129881.00 ,-0.29707336,-9.376205,-0.83851624
1518198130082.00 ,-0.3184967,-10.2379,0.22312927
1518198130284.00 ,0.06474304,-9.638046,-1.1955719
1518198130487.00 ,0.17900085,-9.526169,-0.97895813
1518198130688.00 ,-0.54463196,-9.547592,-0.9242096
1518198130889.00 ,-0.24708557,-9.668991,-0.73139954
1518198131091.00 ,0.6193695,-9.588058,-0.6623688
1518198131293.00 ,0.17185974,-9.702316,-0.7028351
1518198131494.00 ,0.30039978,-9.66423,-0.84565735
1518198131696.00 ,0.91929626,-9.766586,-1.350296
1518198131896.00 ,0.6717377,-9.426193,-0.9837189
1518198132098.00 ,0.14805603,-9.711838,-1.497879
1518198132300.00 ,0.31944275,-9.635666,-0.81947327
1518198132500.00 ,-0.123306274,-9.361923,-0.97895813
1518198132702.00 ,-0.11616516,-9.514267,-1.0194244
1518198132903.00 ,-0.5422516,-9.540451,-1.0289459
1518198133106.00 ,-0.34944153,-9.497604,-0.95991516
1518198133307.00 ,0.14329529,-9.552353,-0.9741974
1518198133508.00 ,-0.19947815,-9.488083,-0.87898254
1518198133710.00 ,-0.24708557,-9.488083,-1.100357
1518198133912.00 ,-0.16853333,-9.53569,-1.0646515
1518198134113.00 ,-0.15901184,-9.495224,-0.92897034
1518198134314.00 ,-0.10664368,-9.435715,-0.95277405
1518198134515.00 ,-0.12806702,-9.547592,-1.0003815
1518198134716.00 ,-0.17329407,-9.4857025,-1.100357
1518198134918.00 ,-0.16853333,-9.449997,-1.1098785
1518198135120.00 ,-0.19233704,-9.507126,-0.96229553
1518198135320.00 ,-0.20899963,-9.526169,-0.8932648
1518198135522.00 ,-0.26374817,-9.511887,-0.9408722
1518198135724.00 ,-0.1875763,-9.438095,-1.0265656
1518198135925.00 ,-0.28993225,-9.542831,-1.1313019
1518198136127.00 ,-0.1947174,-9.445236,-1.0456085
1518198136327.00 ,-0.28993225,-9.385727,-1.0241852
1518198136528.00 ,-0.26612854,-9.47142,-1.0979767
1518198136731.00 ,-0.24232483,-9.511887,-1.1051178
1518198136933.00 ,-0.26612854,-9.464279,-0.9956207
1518198137134.00 ,-0.28041077,-9.409531,-1.0408478
1518198137335.00 ,-0.17805481,-9.473801,-1.036087
1518198137536.00 ,-0.42799377,-9.519028,-1.0075226
1518198137738.00 ,-0.3446808,-9.457138,-1.0622711
1518198137939.00 ,-0.23756409,-9.578537,-0.9337311
1518198138141.00 ,-0.23042297,-9.521408,-0.99324036
1518198138342.00 ,-0.34706116,-9.523788,-1.1360626
1518198138544.00 ,-0.36610413,-9.452377,-0.9004059
1518198138745.00 ,-0.29707336,-9.507126,-0.9741974
1518198138947.00 ,-0.3018341,-9.4857025,-1.0265656
1518198139148.00 ,-0.3851471,-9.507126,-0.9670563
1518198139349.00 ,-0.21614075,-9.492844,-0.98609924
1518198139551.00 ,-0.24946594,-9.461899,-0.98609924
1518198139753.00 ,-0.28755188,-9.452377,-1.0027618
1518198139954.00 ,-0.34944153,-9.423813,-1.0337067
1518198140156.00 ,-0.3018341,-9.490463,-1.1027374
1518198140356.00 ,-0.25898743,-9.414291,-1.0908356
1518198140559.00 ,-0.30421448,-9.40715,-1.0694122
1518198140760.00 ,-0.22566223,-9.483322,-1.1170197
1518198140962.00 ,-0.27088928,-9.440475,-1.0337067
1518198141162.00 ,-0.26612854,-9.509506,-0.9146881
1518198141364.00 ,-0.9445343,-8.524033,-0.36958313
1518198141565.00 ,5.8609467,-13.663254,-1.4907379
1518198141767.00 ,-5.874283,-2.901596,-2.1739044
1518198141969.00 ,-0.22328186,6.9483795,-0.6171417
1518198142169.00 ,5.8228607,-15.096237,4.543503
1518198142370.00 ,-4.450821,-13.568039,-19.643448
1518198142571.00 ,-0.17567444,8.436111,-0.759964
1518198142773.00 ,-2.8678741,-19.423752,-0.28627014
1518198142975.00 ,1.3168182,-4.863022,-3.3283844
1518198143176.00 ,-3.0868683,2.6803741,1.8560638
1518198143377.00 ,1.4382172,-38.84163,-5.187454
1518198143580.00 ,0.22898865,-1.4757538,0.12315369
1518198143781.00 ,-5.4696198,-1.8899384,1.1181488
1518198143983.00 ,-21.325272,-25.69603,3.762741
1518198144183.00 ,-4.6007843,6.355667,1.2704926
1518198144385.00 ,-0.589859,-18.302597,-4.3281403
1518198144587.00 ,0.38609314,-3.5538177,4.4197235
1518198144789.00 ,1.7952728,3.8824615,1.3181
1518198144990.00 ,-10.996841,-38.84163,-16.70845
1518198145190.00 ,1.5738983,3.506363,-1.9644318
1518198145391.00 ,-1.2539825,-15.353317,-4.052017
1518198145593.00 ,-0.82551575,-6.879196,1.6418304
1518198145795.00 ,5.6752777,3.5539703,2.684433
1518198145998.00 ,-0.12806702,-38.84163,-9.998184
1518198146198.00 ,3.8899994,4.1133575,0.78489685
1518198146399.00 ,-3.598648,-20.737717,-5.8753815
1518198146602.00 ,2.4355927,-4.0798798,2.3559418
1518198146802.00 ,-0.7802887,3.7729645,2.8605804
1518198147004.00 ,-2.7440948,-24.465378,3.6484833
1518198147206.00 ,-2.2846832,5.2845,-2.5523834
1518198147408.00 ,11.112045,-26.879074,-5.7611237
1518198147609.00 ,0.114730835,-3.8870697,-0.7575836
1518198147809.00 ,1.404892,4.418045,3.0010223
1518198148012.00 ,-14.172256,-30.856674,4.569687
1518198148212.00 ,-0.9207306,3.1445465,-2.7261505
1518198148413.00 ,4.330368,-21.132858,-3.0403595
1518198148614.00 ,2.3070526,-5.581894,3.2961884
1518198148816.00 ,-2.0037994,3.4206696,2.4297333
1518198149017.00 ,-0.6255646,-21.730331,-4.544754
1518198149220.00 ,-5.4172516,5.872452,-3.9663239
1518198149422.00 ,11.366745,-26.91716,0.056503296
1518198149623.00 ,1.1787567,-0.34983826,-1.2527008
1518198149823.00 ,2.0571136,-2.420761,-0.17677307
1518198150025.00 ,-11.461014,-31.785019,11.265671
1518198150227.00 ,-4.1009064,5.0226593,0.46354675
1518198150429.00 ,1.3810883,-33.46318,-4.3114777
1518198150630.00 ,3.4591522,0.6903839,-2.2191315
1518198150831.00 ,0.19328308,-9.035812,-3.7330475
1518198151033.00 ,3.028305,-9.878464,-4.1258087
1518198151235.00 ,0.7288666,4.929825,4.353073
1518198151436.00 ,3.1187592,-37.724045,-4.140091
1518198151637.00 ,-5.426773,5.079788,-1.0289459
1518198151839.00 ,-0.18281555,-21.556564,-4.806595
1518198152040.00 ,0.6669769,-2.4374237,0.8444061
1518198152242.00 ,0.7740936,-7.99559,0.64445496
1518198152443.00 ,-0.063797,-10.214096,-2.4452667
1518198152645.00 ,1.6238861,-9.714218,-0.4790802
1518198152846.00 ,0.94548035,-8.883469,-0.9575348
1518198153047.00 ,1.3096771,-9.21434,-0.9480133
1518198153249.00 ,1.4001312,-9.319077,-1.2312775
1518198153450.00 ,0.4884491,-9.423813,-1.2003326
1518198153650.00 ,1.2477875,-9.4214325,-1.3621979
1518198153852.00 ,0.8026581,-9.5047455,-1.1931915
1518198154055.00 ,0.8193207,-9.890366,-1.0836945
1518198154256.00 ,0.45274353,-9.280991,-1.3026886
1518198154458.00 ,0.54319763,-9.499985,-0.9837189
1518198154659.00 ,1.2097015,-9.488083,-1.240799
1518198154859.00 ,0.5931854,-9.507126,-0.7575836
1518198155062.00 ,0.6384125,-9.873703,-0.6909332
1518198155263.00 ,0.47654724,-9.47142,-0.7694855
1518198155464.00 ,0.42655945,-9.490463,-0.8480377
1518198155666.00 ,0.54319763,-9.5690155,-0.971817
1518198155866.00 ,0.58366394,-9.576157,-0.9384918
1518198156069.00 ,0.68840027,-9.521408,-0.8504181
1518198156270.00 ,0.39323425,-9.588058,-0.888504
1518198156472.00 ,0.609848,-9.540451,-0.94325256
1518198156673.00 ,0.57414246,-9.576157,-0.96943665
1518198156874.00 ,0.5550995,-9.483322,-0.87184143
1518198157077.00 ,0.5527191,-9.521408,-1.009903
1518198157278.00 ,0.54081726,-9.5047455,-0.86946106
1518198157479.00 ,0.5479584,-9.549973,-0.8099518
1518198157680.00 ,0.58366394,-9.514267,-0.9503937
1518198157881.00 ,0.5384369,-9.547592,-0.8599396
1518198158083.00 ,0.49082947,-9.440475,-0.95991516
1518198158285.00 ,0.564621,-9.602341,-0.95991516
1518198158486.00 ,0.50987244,-9.478561,-0.91230774
1518198158687.00 ,0.46940613,-9.53093,-0.91944885
1518198158888.00 ,0.55747986,-9.690414,-0.9741974
1518198159090.00 ,0.35514832,-9.490463,-0.9956207
1518198159291.00 ,0.5384369,-9.53093,-1.0027618
1518198159494.00 ,0.4717865,-9.53093,-0.9051666
1518198159695.00 ,0.7431488,-9.59996,-1.0289459
1518198159895.00 ,0.63127136,-9.564255,-0.9551544
1518198160098.00 ,0.52415466,-9.53569,-0.9813385
1518198160299.00 ,0.59794617,-9.542831,-0.94563293
1518198160501.00 ,0.61460876,-9.490463,-0.95277405
1518198160702.00 ,0.55747986,-9.576157,-0.9837189
1518198160902.00 ,0.56700134,-9.507126,-0.8813629
1518198161105.00 ,0.6193695,-9.480942,-1.009903
1518198161306.00 ,0.45988464,-9.519028,-0.9146881
1518198161508.00 ,0.5789032,-9.483322,-0.9480133
1518198161709.00 ,0.6217499,-9.576157,-0.8266144
1518198161911.00 ,0.55747986,-9.528549,-0.96943665
1518198162111.00 ,0.4717865,-9.561874,-0.9218292
1518198162312.00 ,0.5884247,-9.490463,-0.8908844
1518198162515.00 ,0.43608093,-9.507126,-0.9051666
1518198162716.00 ,0.5146332,-9.578537,-0.9956207
1518198162917.00 ,0.37419128,-9.552353,-0.89564514
1518198163119.00 ,0.59080505,-9.5690155,-0.97895813
1518198163320.00 ,0.40275574,-9.576157,-0.91230774
1518198163522.00 ,0.49797058,-9.657089,-0.5552521
1518198163724.00 ,1.3763275,-5.6104584,-4.9970245
1518198163924.00 ,2.1142426,-10.940109,-5.301712
1518198164125.00 ,0.6122284,-1.1472626,-4.0282135
1518198164327.00 ,-8.74501,-4.813034,-2.1762848
1518198164529.00 ,-2.917862,-15.924606,-6.649002
1518198164731.00 ,4.104233,3.0921783,5.5670624
1518198164931.00 ,-11.658585,2.6065826,-5.120804
1518198165133.00 ,0.64793396,-11.447128,-9.345963
1518198165335.00 ,-11.591934,-10.311691,-8.448563
1518198165537.00 ,-8.057083,10.709366,0.25169373
1518198165738.00 ,-2.0061798,-9.926071,-4.7661285
1518198165939.00 ,8.050888,-26.138779,1.2252655
1518198166141.00 ,0.8359833,-9.140549,-2.7594757
1518198166341.00 ,0.39561462,-0.9211273,0.7896576
1518198166544.00 ,7.512924,-17.064804,-6.7537384
1518198166746.00 ,-10.873062,-25.108078,-1.350296
1518198166947.00 ,-3.8723907,2.601822,-1.7525787
1518198167147.00 ,-3.5296173,3.8396149,-1.2812653
1518198167348.00 ,6.022812,-14.032211,-12.399979
1518198167549.00 ,-17.421463,-11.785141,-0.907547
1518198167751.00 ,-3.4534454,4.906021,-2.6833038
1518198167952.00 ,-4.548416,-9.061996,-5.48024
1518198168155.00 ,-36.31685,-29.09996,-12.718948
1518198168355.00 ,-7.890457,5.0107574,-6.1372223
1518198168557.00 ,0.99308777,-5.703293,0.4516449
1518198168759.00 ,-15.391006,-32.75383,-4.397171
1518198168961.00 ,-2.8702545,6.3247223,-4.0020294
1518198169162.00 ,2.078537,-6.077011,0.9229584
1518198169364.00 ,17.2415,-30.759079,-2.9427643
1518198169566.00 ,-2.3751373,-1.675705,-4.4257355
1518198169767.00 ,0.53367615,-0.41886902,3.8484344
1518198169969.00 ,15.5681,-17.921738,1.8203583
1518198170170.00 ,6.098984,-16.867233,0.19932556
1518198170370.00 ,2.4689178,0.9641266,4.2459564
1518198170572.00 ,4.72789,-11.90654,4.4078217
1518198170774.00 ,0.2908783,-18.333542,0.19932556
1518198170975.00 ,2.188034,4.027664,3.3747406
1518198171177.00 ,2.790268,-6.0912933,5.1385956
1518198171377.00 ,9.638596,-29.883102,-7.713028
1518198171578.00 ,0.859787,4.4846954,3.6222992
1518198171781.00 ,-3.2368317,-4.5845184,0.118392944
1518198171981.00 ,12.0499115,-15.317612,-0.49812317
1518198172182.00 ,-6.452713,-14.708237,-7.163162
1518198172384.00 ,-2.7798004,1.6139679,-5.725418
1518198172587.00 ,7.760483,-6.5364227,-9.705399
1518198172788.00 ,4.1280365,-33.20134,-13.909134
1518198172990.00 ,-7.830948,2.5803986,-4.949417
1518198173191.00 ,-0.94929504,-5.838974,-6.782303
1518198173391.00 ,12.216537,-16.574448,-1.6573639
1518198173594.00 ,-4.148514,-0.3879242,-5.9944
1518198173795.00 ,-1.7229156,0.6261139,0.17790222
1518198173995.00 ,23.161484,-23.491806,1.8179779
1518198174197.00 ,-0.78504944,-4.4440765,-4.2662506
1518198174398.00 ,-4.1270905,-7.41716,-1.6264191
1518198174600.00 ,1.6929169,-10.287888,-2.6023712
1518198174801.00 ,-0.7541046,-9.585678,-1.4740753
1518198175004.00 ,-0.3922882,-9.885605,-0.9170685
1518198175205.00 ,0.5122528,-9.27861,-1.2741241
1518198175406.00 ,1.571518,-9.423813,-1.6383209
1518198175608.00 ,0.7907562,-9.27623,-1.0527496
1518198175808.00 ,0.8097992,-9.376205,-0.71473694
1518198176011.00 ,1.0835419,-9.461899,-0.97657776
1518198176213.00 ,0.78123474,-9.65947,-1.1122589
1518198176414.00 ,0.74790955,-9.554733,-1.0789337
1518198176616.00 ,0.9716644,-9.499985,-0.96229553
1518198176816.00 ,0.9835663,-9.46904,-0.9980011
1518198177018.00 ,0.7526703,-9.459518,-1.0908356
1518198177220.00 ,1.0883026,-9.511887,-0.96943665
1518198177421.00 ,0.98594666,-9.557114,-1.1194
1518198177623.00 ,1.1977997,-9.514267,-0.85279846
1518198177823.00 ,1.0573578,-9.564255,-0.95991516
1518198178026.00 ,0.7693329,-9.592819,-0.86231995
1518198178227.00 ,0.82884216,-9.516647,-1.074173
1518198178428.00 ,0.9740448,-9.497604,-1.0289459
1518198178629.00 ,0.91929626,-9.4857025,-1.0622711
1518198178830.00 ,0.99546814,-9.519028,-0.96943665
1518198179031.00 ,0.8693085,-9.480942,-0.89564514
1518198179233.00 ,0.9002533,-9.538071,-0.9337311
1518198179434.00 ,0.9145355,-9.619003,-0.8480377
1518198179636.00 ,0.79789734,-9.433334,-0.7837677
1518198179838.00 ,0.9645233,-9.526169,-0.8837433
1518198180040.00 ,0.95262146,-9.528549,-0.90992737
1518198180240.00 ,0.93595886,-9.5047455,-0.9146881
1518198180442.00 ,0.9311981,-9.545212,-1.0313263
1518198180644.00 ,0.8812103,-9.542831,-0.971817
1518198180846.00 ,0.7907562,-9.53093,-1.0765533
1518198181047.00 ,0.8264618,-9.549973,-0.96943665
1518198181249.00 ,0.82884216,-9.435715,-0.9503937
1518198181450.00 ,0.9002533,-9.542831,-0.92658997
1518198181650.00 ,0.8907318,-9.509506,-0.97895813
1518198181853.00 ,0.83836365,-9.492844,-1.0479889
1518198182054.00 ,0.91215515,-9.545212,-0.9337311
1518198182256.00 ,1.0049896,-9.602341,-0.971817
1518198182457.00 ,0.7336273,-9.53331,-0.91944885
1518198182659.00 ,0.9145355,-9.502365,-0.94563293
1518198182860.00 ,0.988327,-9.514267,-0.97657776
1518198183061.00 ,0.8097992,-9.592819,-0.92897034
1518198183263.00 ,0.8764496,-9.499985,-0.8766022
1518198183464.00 ,0.82170105,-9.507126,-0.91230774
1518198183666.00 ,0.70744324,-9.521408,-0.83613586
1518198183866.00 ,0.92881775,-9.552353,-0.843277
1518198184067.00 ,0.8097992,-9.509506,-0.8980255
1518198184270.00 ,0.84550476,-9.46666,-0.92897034
1518198184471.00 ,0.7169647,-9.483322,-0.81947327
1518198184672.00 ,0.8264618,-9.614243,-0.83851624
1518198184873.00 ,0.78123474,-9.345261,-1.0670319
1518198185076.00 ,0.67411804,-9.649948,-3.1355743
1518198185276.00 ,0.10044861,-8.305038,-3.9639435
1518198185478.00 ,0.63127136,-8.82634,-0.45765686
1518198185680.00 ,-0.41133118,-10.392624,-0.16725159
1518198185880.00 ,1.9785614,-9.695175,-1.6026154
1518198186083.00 ,-3.7628937,-8.873947,0.27311707
1518198186284.00 ,-0.5493927,-7.22435,-1.8001862
1518198186486.00 ,-1.1325836,-8.426437,1.1609955
1518198186686.00 ,-0.7874298,-9.038193,1.5156708
1518198186888.00 ,0.65031433,-10.042709,1.8679657
1518198187090.00 ,3.5519867,-9.195297,-2.8213654
1518198187292.00 ,-2.0561676,-8.76207,-4.0472565
1518198187493.00 ,-0.25660706,-7.9337006,1.6251678
1518198187694.00 ,0.6217499,-9.054855,-1.433609
1518198187895.00 ,3.5638885,-11.951767,-0.83851624
1518198188097.00 ,-1.9538116,-11.668503,-2.216751
1518198188299.00 ,3.599594,-8.521652,-2.8713531
1518198188500.00 ,1.2787323,-8.462143,-1.6073761
1518198188700.00 ,-0.7041168,-8.236008,-1.221756
1518198188901.00 ,2.2665863,-9.540451,-0.7575836
1518198189103.00 ,0.06474304,-10.728256,-1.9549103
1518198189304.00 ,-0.9945221,-8.37645,0.5920868
1518198189506.00 ,0.60032654,-9.4857025,-0.6623688
1518198189708.00 ,0.6027069,-10.373581,2.3535614
1518198189909.00 ,-1.1920929,-9.585678,1.6846771
1518198190112.00 ,1.0359344,-9.40477,1.0253143
1518198190312.00 ,-6.0575714,-10.578293,-0.888504
1518198190514.00 ,-2.1180573,-5.724716,-2.5452423
1518198190716.00 ,-1.7157745,-9.511887,-3.5449982
1518198190917.00 ,3.8400116,-7.205307,3.5865936
1518198191118.00 ,0.4313202,-10.744919,-3.0284576
1518198191319.00 ,-2.6393585,-11.309067,-1.2931671
1518198191522.00 ,-1.9895172,-6.2460175,0.55400085
1518198191722.00 ,-5.574356,-11.223373,-2.773758
1518198191923.00 ,0.81217957,-9.304794,3.0581512
1518198192125.00 ,0.7859955,-10.214096,-0.9551544
1518198192326.00 ,-2.4870148,-10.290268,1.5608978
1518198192528.00 ,5.2134857,-9.897507,-1.6407013
1518198192730.00 ,-0.14949036,-9.033432,-6.006302
1518198192932.00 ,-1.3825226,-7.8622894,-2.0858307
1518198193133.00 ,0.90501404,-8.650192,0.76823425
1518198193333.00 ,0.43608093,-9.878464,-0.029190063
1518198193536.00 ,-4.129471,-6.498337,-0.89564514
1518198193737.00 ,-4.0175934,-4.7511444,-1.6097565
1518198193939.00 ,-4.419876,-10.1783905,-6.339554
1518198194140.00 ,-1.8371735,-12.827744,-2.9713287
1518198194340.00 ,1.6691132,-10.630661,-0.21723938
1518198194543.00 ,1.3596649,-10.963913,-0.8647003
1518198194745.00 ,-3.2677765,-12.554001,-0.52430725
1518198194946.00 ,-0.99690247,-8.216965,-3.2712555
1518198195147.00 ,-3.7319489,-8.321701,-3.7782745
1518198195348.00 ,0.031417847,-9.376205,0.5349579
1518198195549.00 ,-1.1254425,-8.714462,-0.95277405
1518198195751.00 ,0.32896423,-9.542831,-2.0406036
1518198195952.00 ,0.91929626,-9.447617,0.24217224
1518198196155.00 ,-1.7133942,-8.640671,-0.54811096
1518198196356.00 ,-2.0704498,-9.47142,-0.99324036
1518198196557.00 ,-0.9921417,-9.188156,-1.1598663
1518198196759.00 ,-1.4372711,-9.40715,-1.2884064
1518198196960.00 ,-0.32325745,-9.166733,-2.6190338
1518198197162.00 ,-1.2849274,-9.526169,-1.7359161
1518198197363.00 ,-1.3753815,-9.671371,-0.3219757
1518198197563.00 ,-0.737442,-9.640427,-0.57429504
1518198197766.00 ,-1.006424,-9.157211,-0.13868713
1518198197966.00 ,-1.0230865,-9.566635,-0.64808655
1518198198167.00 ,-0.88978577,-9.354782,-0.4862213
1518198198369.00 ,-0.5993805,-9.53093,-0.34101868
1518198198570.00 ,-0.7326813,-9.376205,-0.5623932
1518198198772.00 ,-1.23732,-9.366684,-0.5362091
1518198198973.00 ,-1.0611725,-9.557114,-0.48384094
1518198199176.00 ,-0.7493439,-9.449997,-0.28627014
1518198199376.00 ,-0.7945709,-9.502365,-0.32911682
1518198199578.00 ,-0.9588165,-9.480942,-0.4790802
1518198199779.00 ,-0.8540802,-9.428574,-0.39100647
1518198199980.00 ,-0.6327057,-9.490463,-0.36958313
1518198200183.00 ,-0.7802887,-9.433334,-0.39100647
1518198200383.00 ,-0.7731476,-9.526169,-0.4862213
1518198200585.00 ,-0.885025,-9.547592,-0.445755
1518198200787.00 ,-0.90882874,-9.514267,-0.5362091
1518198200988.00 ,-0.7303009,-9.53569,-0.56477356
1518198201190.00 ,-0.7398224,-9.514267,-0.3648224
1518198201390.00 ,-0.79219055,-9.480942,-0.32911682
1518198201592.00 ,-0.8040924,-9.566635,-0.3957672
1518198201795.00 ,-0.7707672,-9.464279,-0.49812317
1518198201996.00 ,-0.7731476,-9.497604,-0.44099426
1518198202197.00 ,-0.8612213,-9.495224,-0.3791046
1518198202398.00 ,-0.80171204,-9.483322,-0.42671204
1518198202600.00 ,-0.7326813,-9.554733,-0.3719635
1518198202801.00 ,-0.8064728,-9.492844,-0.38624573
1518198203002.00 ,-0.7493439,-9.592819,-0.4219513
1518198203205.00 ,-0.7541046,-9.488083,-0.4124298
1518198203405.00 ,-0.75172424,-9.526169,-0.2648468
1518198203607.00 ,-0.8302765,-9.476181,-0.36006165
1518198203808.00 ,-0.7636261,-9.566635,-0.3386383
1518198204009.00 ,-0.820755,-9.454758,-0.36958313
1518198204212.00 ,-0.76600647,-9.488083,-0.28627014
1518198204413.00 ,-0.8112335,-9.507126,-0.3314972
1518198204615.00 ,-0.83265686,-9.457138,-0.34577942
1518198204815.00 ,-0.76600647,-9.528549,-0.3053131
1518198205018.00 ,-0.84217834,-9.499985,-0.3553009
1518198205219.00 ,-0.7160187,-9.53093,-0.29341125
1518198205420.00 ,-0.7303009,-9.519028,-0.29341125
1518198205622.00 ,-0.8231354,-9.53569,-0.28627014
1518198205822.00 ,-0.7779083,-9.476181,-0.29103088
1518198206024.00 ,-0.8040924,-9.578537,-0.21247864
1518198206225.00 ,-0.8302765,-9.523788,-0.24342346
1518198206428.00 ,-0.8564606,-9.740402,-0.2077179
1518198206629.00 ,-0.08760071,-3.2657928,-0.7813873
1518198206829.00 ,-7.985672,-5.4652557,-0.7694855
1518198207032.00 ,-3.7605133,-8.485947,-13.4640045
1518198207232.00 ,1.4191742,4.4727936,1.3895111
1518198207435.00 ,3.1163788,-12.235031,-3.076065
1518198207637.00 ,-2.0942535,-10.280746,-10.017227
1518198207837.00 ,5.7443085,7.157852,1.3609467
1518198208040.00 ,7.9390106,-31.849289,-4.2329254
1518198208241.00 ,1.1025848,-0.45933533,1.0729218
1518198208441.00 ,-3.2225494,-8.712082,0.24217224
1518198208642.00 ,-6.521744,-16.372116,-7.239334
1518198208845.00 ,-1.5491486,6.0938263,1.2109833
1518198209046.00 ,14.392197,-30.263962,-6.5347443
1518198209248.00 ,-0.9278717,1.6925201,1.3466644
1518198209448.00 ,0.35514832,-10.083176,-1.1717682
1518198209650.00 ,0.314682,-10.997238,-3.5735626
1518198209852.00 ,6.2013397,7.2245026,10.584885
1518198210054.00 ,3.3139496,-35.753098,-12.457108
1518198210255.00 ,-5.3767853,2.1900177,-0.18153381
1518198210456.00 ,1.995224,-7.4195404,-0.6528473
1518198210658.00 ,-9.287735,-22.720566,-6.69899
1518198210859.00 ,-2.7036285,5.1464386,-0.64808655
1518198211061.00 ,18.043686,-27.23851,-9.90773
1518198211261.00 ,1.1668549,-2.2755585,-0.85517883
1518198211462.00 ,-2.5536652,-3.1277313,-1.8335114
1518198211665.00 ,4.485092,-19.895065,-7.4654694
1518198211866.00 ,-1.5515289,4.7536774,-0.20295715
1518198212068.00 ,15.330063,-28.171616,1.7299042
1518198212269.00 ,-0.23042297,1.9210358,0.08982849
1518198212470.00 ,3.5234222,-8.919174,-3.5021515
1518198212672.00 ,0.72410583,-12.730148,-2.5547638
1518198212872.00 ,4.2256317,5.4915924,2.6249237
1518198213075.00 ,-2.789322,0.3690338,2.60112
1518198213277.00 ,-0.28279114,-5.074875,3.2438202
1518198213478.00 ,2.2951508,-20.544907,0.2707367
1518198213679.00 ,-17.883255,-3.5657196,1.8036957
1518198213880.00 ,12.966354,-13.31572,-1.3669586
1518198214081.00 ,2.0880585,-11.154343,2.3107147
1518198214282.00 ,-3.6319733,6.938858,1.1586151
1518198214484.00 ,13.828049,-21.244736,-1.9620514
1518198214685.00 ,0.6217499,-3.6109467,-0.098220825
1518198214887.00 ,0.1337738,4.1252594,2.196457
1518198215088.00 ,4.2613373,-38.84163,1.4394989
1518198215291.00 ,-0.23756409,3.411148,-0.63856506
1518198215492.00 ,4.527939,-10.88298,0.29216003
1518198215694.00 ,-0.7207794,-16.067429,-5.4659576
1518198215895.00 ,0.88835144,5.4915924,0.625412
1518198216097.00 ,9.252975,-36.66716,-6.8441925
1518198216297.00 ,-0.78266907,-2.894455,1.7465668
1518198216498.00 ,-0.09712219,-6.39122,0.39213562
1518198216700.00 ,-2.7845612,-17.569443,-6.6061554
1518198216901.00 ,-3.7152863,7.291153,2.9748383
1518198217104.00 ,-4.2627716,-37.395554,1.9250946
1518198217305.00 ,-0.013809204,5.0178986,0.13743591
1518198217507.00 ,8.138962,-14.66777,-8.341446
1518198217707.00 ,2.7402802,-8.50499,0.625412
1518198217910.00 ,1.8785858,-9.15007,-1.4264679
1518198218111.00 ,1.1311493,-9.366684,-0.46479797
1518198218311.00 ,2.180893,-9.207199,-1.0622711
1518198218513.00 ,2.1594696,-9.807053,-0.6837921
1518198218715.00 ,2.3879852,-9.269089,-0.9670563
1518198218917.00 ,2.7688446,-9.835617,-0.5552521
1518198219118.00 ,2.1642303,-9.545212,-0.91230774
1518198219318.00 ,2.1285248,-9.378586,-0.93611145
1518198219519.00 ,2.3760834,-9.376205,-0.9004059
1518198219721.00 ,2.3260956,-9.366684,-0.89564514
1518198219923.00 ,2.1285248,-9.395248,-0.94325256
1518198220124.00 ,1.9666595,-9.311935,-0.7909088
1518198220325.00 ,2.264206,-9.423813,-0.7504425
1518198220528.00 ,2.373703,-9.411911,-0.7575836
1518198220730.00 ,2.0190277,-9.319077,-0.21247864
1518198220931.00 ,2.188034,-9.730881,-0.48384094
1518198221133.00 ,1.802414,-9.6523285,-0.1743927
1518198221333.00 ,2.0928192,-9.628525,-0.3481598
1518198221534.00 ,2.0928192,-9.576157,-0.41004944
1518198221737.00 ,2.3618011,-9.395248,-0.3553009
1518198221938.00 ,2.1785126,-9.492844,-0.46955872
1518198222138.00 ,2.3237152,-9.330978,-0.49336243
1518198222339.00 ,2.3070526,-9.438095,-0.4290924
1518198222541.00 ,2.1594696,-9.430954,-0.51716614
1518198222744.00 ,2.1737518,-9.519028,-0.29341125
1518198222944.00 ,2.3570404,-9.507126,-0.40052795
1518198223147.00 ,2.3118134,-9.347641,-0.3553009
1518198223347.00 ,2.078537,-9.4214325,-0.20057678
1518198223549.00 ,2.199936,-9.395248,-0.298172
1518198223751.00 ,2.2380219,-9.478561,-0.13392639
1518198223953.00 ,2.252304,-9.495224,-0.35768127
1518198224154.00 ,2.1547089,-9.476181,-0.22914124
1518198224355.00 ,2.1832733,-9.426193,-0.30055237
1518198224557.00 ,2.2427826,-9.364304,-0.31007385
1518198224758.00 ,2.2142181,-9.461899,-0.27674866
1518198224960.00 ,2.29039,-9.476181,-0.3053131
1518198225161.00 ,2.3237152,-9.461899,-0.3553009
1518198225363.00 ,2.316574,-9.46904,-0.19819641
1518198225563.00 ,2.3379974,-9.373825,-0.39100647
1518198225765.00 ,2.2975311,-9.499985,-0.3719635
1518198225967.00 ,2.3189545,-9.335739,-0.46955872
1518198226168.00 ,2.3427582,-9.416672,-0.3719635
1518198226369.00 ,2.283249,-9.452377,-0.21485901
1518198226570.00 ,2.2880096,-9.373825,-0.28388977
1518198226772.00 ,2.2880096,-9.483322,-0.22676086
1518198226973.00 ,2.29039,-9.46666,-0.3219757
1518198227175.00 ,2.283249,-9.433334,-0.23390198
1518198227376.00 ,2.3189545,-9.449997,-0.23628235
1518198227578.00 ,2.399887,-9.53569,-0.1577301
1518198227780.00 ,2.3618011,-9.557114,-0.40766907
1518198227980.00 ,5.1301727,-8.290756,-0.21485901
1518198228183.00 ,2.0166473,-9.388107,-0.77186584
1518198228383.00 ,1.5429535,-9.695175,-1.1646271
1518198228584.00 ,2.5284271,-9.21434,-0.18867493
1518198228785.00 ,0.99546814,-8.966782,-0.38386536
1518198228988.00 ,2.9735565,-9.649948,-0.8599396
1518198229189.00 ,-1.994278,-9.016769,-3.1950836
1518198229390.00 ,-2.0299835,-6.71257,-1.6216583
1518198229593.00 ,3.2901459,-7.0148773,0.08268738
1518198229794.00 ,14.689743,-20.611557,-2.940384
1518198229995.00 ,3.297287,-5.3938446,-8.134354
1518198230197.00 ,3.1663666,2.147171,9.111435
1518198230398.00 ,3.425827,-8.012253,-1.1860504
1518198230600.00 ,11.000168,-19.887924,4.3173676
1518198230800.00 ,-6.6288605,-13.356186,-9.822037
1518198231002.00 ,1.0478363,1.3973541,-6.527603
1518198231204.00 ,7.4510345,-8.538315,-1.0241852
1518198231404.00 ,22.728256,-12.701584,2.1702728
1518198231607.00 ,10.614548,-23.00383,-1.1670074
1518198231807.00 ,-1.5753326,-3.132492,1.1395721
1518198232008.00 ,2.6212616,-4.3655243,6.4525604
1518198232210.00 ,16.308395,-10.199814,5.8574677
1518198232412.00 ,-1.0159454,-34.99614,-12.038162
1518198232614.00 ,-3.1201935,2.699417,-8.455704
1518198232815.00 ,3.0164032,-1.4305267,4.3221283
1518198233016.00 ,15.768051,-12.9943695,0.9277191
1518198233219.00 ,5.9228363,-15.836533,-3.1665192
1518198233420.00 ,-0.56843567,5.3559113,3.365219
1518198233621.00 ,0.2813568,-6.062729,5.326645
1518198233822.00 ,12.728317,-15.312851,-4.5423737
1518198234023.00 ,-6.355118,-25.127121,5.2790375
1518198234224.00 ,-12.905899,8.543228,-9.0698395
1518198234426.00 ,0.6193695,-8.462143,-5.268387
1518198234629.00 ,26.424973,-23.927414,-0.46003723
1518198234829.00 ,-0.28041077,-9.85228,-4.1876984
1518198235031.00 ,0.85502625,2.1685944,2.8724823
1518198235233.00 ,5.2777557,-14.382126,6.0026703
1518198235434.00 ,1.3001556,-19.54515,-1.4383698
1518198235636.00 ,5.489609,2.896988,4.645859
1518198235836.00 ,-2.334671,-7.4266815,0.85154724
1518198236038.00 ,9.624313,-23.675095,1.106247
1518198236240.00 ,-11.077774,-0.96635437,-5.154129
1518198236442.00 ,-2.3560944,-0.7735443,0.4683075
1518198236643.00 ,11.378647,-11.961288,-1.0836945
1518198236845.00 ,-32.60823,-37.424118,9.001938
1518198237046.00 ,-8.092789,-2.523117,-7.194107
1518198237246.00 ,10.038498,-6.943466,-10.757523
1518198237448.00 ,-1.1920929,-30.863815,3.210495
1518198237649.00 ,-8.987808,2.6518097,-2.3238678
1518198237852.00 ,6.946396,-5.4438324,-2.59523
1518198238053.00 ,18.369797,-17.636093,-2.5571442
1518198238253.00 ,0.15995789,-1.7828217,-4.385269
1518198238456.00 ,2.6974335,-4.3536224,2.1155243
1518198238656.00 ,20.628769,-13.991745,4.1364594
1518198238859.00 ,5.8038177,-9.842758,1.6989594
1518198239059.00 ,-1.1920929,0.12147522,3.581833
1518198239260.00 ,12.997299,-15.346176,3.1390839
1518198239462.00 ,-0.654129,-5.096298,0.83488464
1518198239665.00 ,-3.277298,-6.853012,0.50401306
1518198239865.00 ,3.1663666,-12.261215,-0.3053131
1518198240067.00 ,3.1092377,-11.623276,-0.45051575
1518198240267.00 ,2.6450653,-9.804672,0.2207489
1518198240470.00 ,2.4451141,-9.366684,-0.3719635
1518198240671.00 ,2.623642,-9.390488,-0.3957672
1518198240872.00 ,2.983078,-9.054855,-0.39100647
1518198241074.00 ,3.471054,-8.933456,0.3683319
1518198241276.00 ,2.7878876,-9.352402,-0.24580383
1518198241477.00 ,2.7307587,-9.409531,-0.19343567
1518198241677.00 ,2.6926727,-9.304794,-0.14820862
1518198241879.00 ,2.6188812,-9.428574,-0.31959534
1518198242082.00 ,2.4808197,-9.40715,-0.41719055
1518198242282.00 ,2.5950775,-9.499985,-0.35292053
1518198242483.00 ,2.6855316,-9.385727,-0.24580383
1518198242685.00 ,2.6093597,-9.416672,-0.2648468
1518198242887.00 ,2.835495,-9.3405,-0.18867493
1518198243087.00 ,2.7617035,-9.333359,-0.26722717
1518198243288.00 ,2.7045746,-9.40715,-0.42671204
1518198243492.00 ,2.7045746,-9.378586,-0.27674866
1518198243692.00 ,2.7426605,-9.388107,-0.27912903
1518198243893.00 ,2.7212372,-9.40477,-0.298172
1518198244094.00 ,2.7093353,-9.321457,-0.29341125
1518198244296.00 ,2.6641083,-9.395248,-0.2815094
1518198244499.00 ,2.7569427,-9.359543,-0.37434387
1518198244700.00 ,2.6902924,-9.354782,-0.37434387
1518198244901.00 ,2.6355438,-9.333359,-0.34577942
1518198245103.00 ,2.7617035,-9.330978,-0.22676086
1518198245305.00 ,2.687912,-9.426193,-0.15534973
1518198245506.00 ,2.6760101,-9.347641,-0.119644165
1518198245707.00 ,2.7498016,-9.357162,-0.2886505
1518198245909.00 ,2.797409,-9.311935,-0.2577057
1518198246110.00 ,2.7593231,-9.335739,-0.26008606
1518198246312.00 ,2.7236176,-9.314316,-0.19819641
1518198246513.00 ,2.6974335,-9.428574,-0.19819641
1518198246713.00 ,2.7759857,-9.359543,-0.13630676
1518198246916.00 ,2.8069305,-9.250046,-0.13630676
1518198247117.00 ,2.7807465,-9.390488,-0.21723938
1518198247318.00 ,2.7569427,-9.383347,-0.2577057
1518198247520.00 ,2.7855072,-9.352402,-0.26246643
1518198247720.00 ,2.7164764,-9.34288,-0.17201233
1518198247922.00 ,2.7736053,-9.392868,-0.34577942
1518198248124.00 ,2.7545624,-9.435715,-0.34101868
1518198248325.00 ,2.7236176,-9.373825,-0.26722717
1518198248527.00 ,2.7117157,-9.335739,-0.33625793
1518198248729.00 ,2.6998138,-9.40715,-0.3148346
1518198248930.00 ,2.752182,-9.309555,-0.15534973
1518198249130.00 ,2.7759857,-9.350021,-0.32911682
1518198249332.00 ,2.7688446,-9.395248,-0.16487122
1518198249534.00 ,2.687912,-9.350021,-0.2315216
1518198249735.00 ,2.687912,-9.359543,-0.36244202
1518198249937.00 ,2.687912,-9.564255,-0.19581604
1518198250139.00 ,2.5189056,-9.354782,0.006515503
1518198250339.00 ,3.3972626,-10.2617035,0.056503296
1518198250542.00 ,2.6974335,-9.561874,-1.0503693
1518198250743.00 ,4.965927,-9.354782,-1.5121613
1518198250944.00 ,0.83122253,-8.347885,-3.4950104
1518198251146.00 ,-1.7014923,-9.095322,1.7251434
1518198251347.00 ,0.924057,-10.116501,-0.7004547
1518198251549.00 ,3.7114716,-10.544968,1.3252411
1518198251751.00 ,2.002365,-8.888229,-4.447159
1518198251952.00 ,-0.69221497,-8.785873,-7.263138
1518198252153.00 ,2.3379974,-8.228867,-1.4383698
1518198252354.00 ,6.208481,-8.481186,0.41355896
1518198252555.00 ,3.7352753,-10.052231,-1.5930939
1518198252756.00 ,0.9431,-10.716354,-1.074173
1518198252958.00 ,4.382736,-8.712082,-2.652359
1518198253159.00 ,2.7640839,-8.464523,-4.7399445
1518198253361.00 ,2.2665863,-6.2650604,-1.1551056
1518198253564.00 ,-0.5422516,-8.014633,-1.1289215
1518198253765.00 ,2.6522064,-10.068893,0.76109314
1518198253966.00 ,-1.0254669,-10.399765,0.856308
1518198254167.00 ,3.2020721,-9.416672,-3.0522614
1518198254368.00 ,1.090683,-10.806808,-1.4478912
1518198254570.00 ,2.1213837,-9.423813,-2.1953278
1518198254772.00 ,3.2996674,-8.607346,-1.2288971
1518198254973.00 ,3.9590302,-9.78801,-0.5052643
1518198255175.00 ,1.3787079,-8.964401,-0.16725159
1518198255375.00 ,3.1806488,-7.424301,-2.6047516
1518198255577.00 ,-1.1397247,-9.492844,-1.3860016
1518198255779.00 ,6.1608734,-9.007248,-0.11012268
1518198255979.00 ,3.7828827,-9.514267,-1.0575104
1518198256182.00 ,0.4646454,-9.778488,-1.5930939
1518198256382.00 ,3.194931,-6.955368,-0.65522766
1518198256585.00 ,-2.9987946,-10.149826,-5.101761
1518198256786.00 ,1.2168427,-10.9353485,3.9579315
1518198256988.00 ,5.349167,-9.073898,-0.024429321
1518198257189.00 ,1.4096527,-9.907028,0.40403748
1518198257389.00 ,2.514145,-8.921555,2.0583954
1518198257592.00 ,4.451767,-7.99559,-5.5921173
1518198257794.00 ,4.168503,-7.950363,0.52305603
1518198257994.00 ,2.892624,-9.347641,-2.0215607
1518198258195.00 ,4.758835,-9.159592,-1.18367
1518198258397.00 ,0.25279236,-9.01915,0.66825867
1518198258598.00 ,-0.030471802,-6.693527,-1.7692413
1518198258800.00 ,4.508896,-13.582321,1.9965057
1518198259001.00 ,5.0659027,-9.516647,-1.0408478
1518198259202.00 ,4.592209,-9.109604,0.8729706
1518198259404.00 ,-0.38990784,-11.782761,-2.0310822
1518198259607.00 ,4.009018,-6.4435883,-4.678055
1518198259807.00 ,3.0640106,-7.6623383,-3.8949127
1518198260008.00 ,3.7757416,-8.140793,0.9681854
1518198260211.00 ,3.3068085,-8.63353,-1.702591
1518198260411.00 ,3.8709564,-9.357162,-0.7004547
1518198260614.00 ,0.18138123,-10.356918,-1.0955963
1518198260814.00 ,5.299179,-4.798752,-0.9503937
1518198261017.00 ,0.06474304,-10.633041,0.47782898
1518198261217.00 ,5.387253,-9.385727,-0.4957428
1518198261419.00 ,2.9521332,-9.935593,-2.3167267
1518198261621.00 ,3.5638885,-9.059616,-1.2550812
1518198261821.00 ,3.7614594,-8.843002,-1.2455597
1518198262024.00 ,3.3520355,-8.902512,-1.6121368
1518198262225.00 ,3.592453,-8.964401,-1.2979279
1518198262427.00 ,3.649582,-8.997726,-1.5145416
1518198262628.00 ,3.0116425,-9.109604,-1.1717682
1518198262828.00 ,3.7114716,-8.750168,-0.91944885
1518198263030.00 ,3.7876434,-9.1072235,-1.0265656
1518198263231.00 ,2.7664642,-9.171494,-1.0337067
1518198263432.00 ,3.3496552,-9.188156,-0.62428284
1518198263634.00 ,3.4543915,-9.247665,-0.7909088
1518198263835.00 ,3.2663422,-9.157211,-0.5861969
1518198264038.00 ,3.2496796,-9.133408,-0.824234
1518198264238.00 ,3.1211395,-9.261948,-0.7099762
1518198264441.00 ,3.297287,-9.352402,-0.6504669
1518198264642.00 ,3.0830536,-9.202438,-0.80281067
1518198264842.00 ,3.1520844,-9.216721,-0.5695343
1518198265045.00 ,3.0187836,-9.202438,-0.72187805
1518198265247.00 ,3.0045013,-9.235764,-0.612381
1518198265447.00 ,3.0687714,-9.209579,-0.6457062
1518198265650.00 ,3.1092377,-9.123886,-0.5528717
1518198265851.00 ,3.1378021,-9.173874,-0.612381
1518198266052.00 ,3.323471,-9.235764,-0.49812317
1518198266254.00 ,3.1020966,-9.173874,-0.6171417
1518198266455.00 ,3.092575,-9.204819,-0.6695099
1518198266657.00 ,3.0997162,-9.2548065,-0.68855286
1518198266858.00 ,2.9711761,-9.219101,-0.676651
1518198267060.00 ,3.168747,-9.233383,-0.5861969
1518198267260.00 ,3.0306854,-9.173874,-0.7004547
1518198267462.00 ,3.1092377,-9.231003,-0.5719147
1518198267664.00 ,3.040207,-9.185776,-0.59809875
1518198267865.00 ,3.0711517,-9.209579,-0.46003723
1518198268066.00 ,2.9735565,-9.264328,-0.44813538
1518198268268.00 ,3.0449677,-9.242905,-0.42433167
1518198268469.00 ,3.1139984,-9.259567,-0.4790802
1518198268670.00 ,3.0187836,-9.2738495,-0.510025
1518198268871.00 ,3.130661,-9.207199,-0.5861969
1518198269074.00 ,3.1354218,-9.223862,-0.44337463
1518198269275.00 ,3.0782928,-9.252426,-0.56477356
1518198269477.00 ,3.130661,-9.307175,-0.5028839
1518198269678.00 ,3.0901947,-9.2548065,-0.75520325
1518198269878.00 ,3.040207,-9.200058,-0.49336243
1518198270081.00 ,2.8045502,-9.361923,-0.3386383
1518198270282.00 ,3.4424896,-9.3381195,-0.5885773
1518198270484.00 ,2.9092865,-9.164352,-0.3886261
1518198270685.00 ,1.8857269,-9.46904,-0.35292053
1518198270886.00 ,1.9571381,-9.521408,-0.381485
1518198271088.00 ,1.7857513,-9.542831,-0.5552521
1518198271290.00 ,1.7429047,-9.509506,-0.40052795
1518198271491.00 ,1.6572113,-9.5952,-0.20533752
1518198271692.00 ,1.8143158,-9.585678,-0.1743927
1518198271893.00 ,1.681015,-9.642807,-0.18629456
1518198272096.00 ,1.6762543,-9.564255,-0.34577942
1518198272296.00 ,1.7714691,-9.8641815,-0.19343567
1518198272498.00 ,0.4789276,-3.5157318,4.019821
1518198272698.00 ,-5.0578156,-4.6226044,-1.3669586
1518198272900.00 ,-4.3698883,-25.25328,4.9576874
1518198273102.00 ,2.5569916,4.667984,-2.190567
1518198273304.00 ,-0.5160675,-13.296677,-5.615921
1518198273504.00 ,-1.6134186,-10.971054,-16.291885
1518198273705.00 ,0.6955414,5.6272736,-1.1908112
1518198273907.00 ,22.466415,-33.187057,2.7248993
1518198274109.00 ,-2.4013214,4.758438,4.9576874
1518198274310.00 ,-1.0016632,1.2473907,1.1014862
1518198274512.00 ,-9.12825,-29.60698,5.886032
1518198274714.00 ,-1.0254669,3.1326447,0.18266296
1518198274916.00 ,4.363693,-14.165512,-5.263626
1518198275117.00 ,0.43608093,-12.449265,-1.1146393
1518198275317.00 ,-1.6824493,7.291153,2.6249237
1518198275519.00 ,13.202011,-29.176132,-2.5190582
1518198275721.00 ,1.3168182,-5.210556,-0.7433014
1518198275923.00 ,1.8547821,4.3061676,3.8722382
1518198276124.00 ,20.83348,-36.35057,0.33024597
1518198276325.00 ,2.41893,-2.1493988,1.8798676
1518198276525.00 ,4.656479,0.40711975,1.068161
1518198276729.00 ,5.7776337,-38.84163,1.5251923
1518198276930.00 ,-1.1087799,1.3473663,-3.7330475
1518198277130.00 ,2.4665375,-14.355942,-3.909195
1518198277331.00 ,3.2234955,-8.807297,-2.928482
1518198277534.00 ,-5.053055,3.3706818,6.6334686
1518198277735.00 ,13.090134,-25.24852,-0.7909088
1518198277937.00 ,-1.1968536,-1.868515,-2.5404816
1518198278138.00 ,0.8907318,5.458267,4.6434784
1518198278339.00 ,4.0494843,-37.75499,2.6487274
1518198278541.00 ,-0.59461975,2.506607,-1.5597687
1518198278743.00 ,4.2446747,0.65467834,-0.9813385
1518198278944.00 ,-6.0147247,-28.628647,2.8582
1518198279144.00 ,-0.04475403,4.8893585,0.6753998
1518198279346.00 ,2.790268,-13.794174,-2.4095612
1518198279548.00 ,-1.7800446,-7.493332,2.6534882
1518198279748.00 ,0.93833923,7.4815826,3.8317719
1518198279951.00 ,2.5950775,-37.643112,-6.146744
1518198280153.00 ,-3.0678253,-1.1425018,-6.230057
1518198280354.00 ,2.1523285,-6.062729,-0.24104309
1518198280556.00 ,4.251816,-20.525864,-9.629227
1518198280757.00 ,-2.0799713,3.7110748,-7.3750153
1518198280958.00 ,10.997787,-22.994308,-5.877762
1518198281160.00 ,2.2665863,-5.769943,-0.14582825
1518198281362.00 ,3.304428,4.346634,1.5156708
1518198281563.00 ,-0.18281555,-38.84163,0.4111786
1518198281763.00 ,-3.2344513,3.3349762,-0.12916565
1518198281965.00 ,6.4322357,-18.38353,-3.2664948
1518198282167.00 ,0.99546814,-6.660202,2.434494
1518198282367.00 ,0.545578,5.360672,3.6699066
1518198282568.00 ,27.30333,-38.84163,-3.3307648
1518198282771.00 ,1.9000092,1.5044708,-1.4693146
1518198282972.00 ,4.2803802,-8.264572,-4.00441
1518198283173.00 ,4.7945404,-10.04747,-2.035843
1518198283374.00 ,3.1639862,-9.223862,-1.2503204
1518198283577.00 ,2.9687958,-9.159592,-0.7837677
1518198283778.00 ,2.7093353,-9.219101,-0.94563293
1518198283979.00 ,2.4522552,-9.335739,-0.20295715
1518198284181.00 ,3.1139984,-8.938217,-0.47669983
1518198284382.00 ,3.1020966,-9.257187,-0.73854065
1518198284583.00 ,2.6069794,-9.238144,-0.6361847
1518198284785.00 ,2.5260468,-9.226242,-0.6433258
1518198284987.00 ,3.1639862,-8.9596405,-0.7575836
1518198285189.00 ,3.2449188,-9.242905,-0.5766754
1518198285389.00 ,3.1735077,-9.247665,-0.76472473
1518198285592.00 ,3.0116425,-9.233383,-0.73139954
1518198285792.00 ,3.156845,-9.164352,-0.8813629
1518198285994.00 ,3.2830048,-9.092941,-0.7766266
1518198286196.00 ,3.1830292,-9.142929,-0.6361847
1518198286397.00 ,3.0830536,-9.111984,-0.68855286
1518198286598.00 ,3.3663177,-9.02153,-0.6623688
1518198286799.00 ,3.2639618,-9.257187,-0.7433014
1518198287001.00 ,3.092575,-9.219101,-0.48384094
1518198287203.00 ,3.2758636,-9.250046,-0.53144836
1518198287403.00 ,3.1425629,-9.242905,-0.22914124
1518198287606.00 ,3.1901703,-9.195297,-0.38624573
1518198287806.00 ,3.1211395,-9.311935,-0.32435608
1518198288007.00 ,3.0521088,-9.250046,-0.2886505
1518198288210.00 ,3.1996918,-9.257187,-0.26960754
1518198288412.00 ,3.2092133,-9.142929,-0.3886261
1518198288612.00 ,3.342514,-9.188156,-0.3386383
1518198288813.00 ,3.1187592,-9.321457,-0.2648468
1518198289016.00 ,3.1211395,-9.245285,-0.26008606
1518198289217.00 ,3.1925507,-9.226242,-0.4219513
1518198289418.00 ,3.2377777,-9.242905,-0.27674866
1518198289619.00 ,3.4472504,-9.27623,-0.3148346
1518198289820.00 ,2.8140717,-9.314316,-0.445755
1518198290022.00 ,3.31633,-9.152451,-0.22676086
1518198290224.00 ,3.4353485,-9.169113,-0.59809875
1518198290426.00 ,3.3377533,-9.154831,-0.5695343
1518198290626.00 ,3.18779,-9.157211,-0.4719391
1518198290827.00 ,3.4163055,-9.292892,-0.3148346
1518198291030.00 ,3.3020477,-9.283371,-0.28388977
1518198291230.00 ,3.0830536,-9.078659,-0.3648224
1518198291433.00 ,3.1378021,-8.50499,-0.17915344
1518198291635.00 ,3.3282318,-9.123886,-0.33625793
1518198291835.00 ,3.0497284,-9.228622,-0.7861481
1518198292037.00 ,3.418686,-9.08342,-0.5385895
1518198292239.00 ,3.3210907,-9.076279,-0.6790314
1518198292440.00 ,2.9783173,-9.1905365,-0.91230774
1518198292642.00 ,2.880722,-9.488083,-0.4386139
1518198292842.00 ,3.4115448,-9.045334,-0.82185364
1518198293045.00 ,3.130661,-9.109604,-0.6361847
1518198293246.00 ,3.0068817,-9.178635,-0.6671295
1518198293447.00 ,3.2663422,-8.533554,-1.2193756
1518198293649.00 ,4.1161346,-8.759689,-0.2743683
1518198293849.00 ,2.366562,-9.092941,-0.7694855
1518198294051.00 ,3.4996185,-8.752548,-1.5740509
1518198294252.00 ,3.7614594,-8.647812,0.10649109
1518198294454.00 ,-0.1875763,-15.298569,-6.872757
1518198294656.00 ,5.3467865,0.947464,4.184067
1518198294856.00 ,10.916855,-16.131699,2.8439178
1518198295058.00 ,0.30278015,-22.330185,-1.2479401
1518198295259.00 ,0.41941833,1.3616486,6.673935
1518198295462.00 ,1.661972,-9.138168,-0.076797485
1518198295663.00 ,8.853073,-21.385178,-1.8787384
1518198295865.00 ,-2.539383,-8.302658,-3.1474762
1518198296066.00 ,-6.2313385,-1.3829193,-4.5661774
1518198296268.00 ,14.984909,-8.8763275,-6.2038727
1518198296469.00 ,6.3917694,-23.96788,6.007431
1518198296670.00 ,5.4824677,-11.977951,-3.6497345
1518198296871.00 ,7.9056854,1.8210602,6.071701
1518198297073.00 ,-0.042373657,-14.965317,-5.475479
1518198297275.00 ,3.1187592,-12.494492,-9.45784
1518198297476.00 ,1.4144135,-0.14750671,7.7332
1518198297677.00 ,7.7200165,-18.226425,5.1052704
1518198297878.00 ,2.4593964,-22.587265,1.5727997
1518198298080.00 ,-0.7207794,-1.0544281,3.5342255
1518198298282.00 ,-3.5558014,-1.2067719,0.89915466
1518198298484.00 ,6.7916718,-10.678268,-3.5235748
1518198298684.00 ,7.1106415,-23.794113,6.6786957
1518198298885.00 ,-0.43989563,-1.8113861,-6.694229
1518198299086.00 ,5.780014,-0.07609558,2.0536346
1518198299287.00 ,7.067795,-14.7391815,-5.8230133
1518198299489.00 ,6.65361,-17.86699,-2.883255
1518198299692.00 ,-1.3372955,0.485672,2.036972
1518198299892.00 ,2.0356903,-0.36412048,2.748703
1518198300094.00 ,2.4998627,-16.219772,3.6413422
1518198300296.00 ,-11.613358,-24.54631,12.912888
1518198300496.00 ,-6.5455475,0.8165436,-5.732559
1518198300699.00 ,-2.3656158,-2.8278046,0.6992035
1518198300899.00 ,18.7697,-19.364243,-0.36244202
1518198301100.00 ,-1.1302032,-4.087021,-6.553787
1518198301304.00 ,0.55033875,1.3283234,2.4487762
1518198301504.00 ,1.8785858,-18.112167,2.960556
1518198301705.00 ,2.2142181,-20.235458,2.363083
1518198301907.00 ,3.4686737,2.666092,2.2464447
1518198302109.00 ,-11.11348,-3.8085175,3.9460297
1518198302311.00 ,10.624069,-14.494003,-5.346939
1518198302512.00 ,-12.59169,-26.038803,2.8248749
1518198302713.00 ,-3.617691,2.8065338,-4.06868
1518198302915.00 ,3.6067352,-6.5935516,-6.5990143
1518198303116.00 ,-2.1180573,-24.022629,-6.4538116
1518198303316.00 ,-3.1011505,4.425186,-7.867752
1518198303519.00 ,2.1594696,-4.067978,-3.659256
1518198303721.00 ,28.798203,-21.163803,5.0148163
1518198303922.00 ,3.2830048,-10.007004,-3.2974396
1518198304122.00 ,-3.2058868,3.2278595,0.3040619
1518198304323.00 ,-5.112564,-11.766098,2.8558197
1518198304526.00 ,12.473618,-29.768845,-0.8813629
1518198304727.00 ,-10.120865,-8.069382,-19.952896
1518198304928.00 ,-3.8961945,3.9205475,-2.6856842
1518198305129.00 ,4.6683807,-1.9946747,-9.046036
1518198305331.00 ,14.168442,-21.411362,-7.539261
1518198305532.00 ,-6.171829,-7.6432953,-5.385025
1518198305735.00 ,-1.9347687,-5.0534515,0.8967743
1518198305936.00 ,11.347702,-12.239792,-0.40052795
1518198306138.00 ,8.12706,-19.247604,4.531601
1518198306338.00 ,-8.042801,-14.332138,-17.277359
1518198306541.00 ,-3.3963165,-1.111557,-3.6092682
1518198306742.00 ,4.880234,-7.4004974,-4.613785
1518198306942.00 ,24.35881,-19.916489,3.6865692
1518198307145.00 ,3.9280853,-8.500229,-2.5404816
1518198307346.00 ,4.208969,0.7713165,0.74443054
1518198307546.00 ,4.2422943,-13.737045,-0.35768127
1518198307749.00 ,12.925888,-20.735336,3.3675995
1518198307951.00 ,-7.954727,-13.082443,-6.5371246
1518198308152.00 ,-5.2887115,-4.184616,0.56114197
1518198308354.00 ,4.9944916,-11.147202,-0.122024536
1518198308554.00 ,2.8640594,-9.435715,0.67063904
1518198308757.00 ,2.316574,-9.914169,0.27311707
1518198308957.00 ,0.055221558,-9.333359,-0.612381
1518198309159.00 ,0.7003021,-8.793015,0.22550964
1518198309361.00 ,3.5876923,-9.449997,-0.10536194
1518198309562.00 ,2.6641083,-9.311935,-0.5362091
1518198309762.00 ,3.5210419,-8.921555,-0.46717834
1518198309965.00 ,3.0901947,-9.452377,-0.7028351
1518198310166.00 ,3.8923798,-9.040573,-0.2815094
1518198310367.00 ,3.452011,-9.131027,-0.23628235
1518198310568.00 ,3.630539,-9.161972,-0.15534973
1518198310770.00 ,3.168747,-9.159592,-0.11012268
1518198310971.00 ,3.1782684,-9.216721,-0.13630676
1518198311174.00 ,3.3210907,-9.311935,-0.060134888
1518198311374.00 ,3.585312,-9.157211,-0.3719635
1518198311576.00 ,3.452011,-9.240524,-0.2577057
1518198311778.00 ,3.4353485,-9.226242,-0.2315216
1518198311979.00 ,3.554367,-9.176254,-0.30293274
1518198312181.00 ,3.4472504,-9.14769,-0.31245422
1518198312381.00 ,3.463913,-9.195297,-0.25294495
1518198312584.00 ,3.4591522,-9.221481,-0.21247864
1518198312785.00 ,3.31633,-9.226242,-0.3314972
1518198312987.00 ,3.2663422,-9.226242,-0.3719635
1518198313188.00 ,3.437729,-9.219101,-0.26960754
1518198313388.00 ,3.5234222,-9.045334,-0.24580383
1518198313591.00 ,3.387741,-9.195297,-0.31245422
1518198313792.00 ,3.4163055,-9.183395,-0.3314972
1518198313994.00 ,3.3591766,-9.204819,-0.31245422
1518198314195.00 ,3.354416,-9.207199,-0.35292053
1518198314396.00 ,3.3329926,-9.233383,-0.35292053
1518198314598.00 ,3.3972626,-9.207199,-0.2243805
1518198314798.00 ,3.3758392,-9.252426,-0.2648468
1518198315000.00 ,3.3663177,-9.135788,-0.26008606
1518198315202.00 ,3.4591522,-9.202438,-0.25294495
1518198315402.00 ,3.7519379,-8.907272,-0.4790802
1518198315605.00 ,1.6857758,-9.930832,-3.6735382
1518198315806.00 ,3.5972137,-6.481674,-2.5642853
1518198316007.00 ,3.0830536,-7.9646454,-2.0977325
1518198316209.00 ,3.4805756,-10.564011,-0.9980011
1518198316410.00 ,5.30632,-9.219101,0.7230072
1518198316613.00 ,4.0828094,-9.259567,1.2776337
1518198316813.00 ,7.1415863,-7.8956146,-0.68855286
1518198317015.00 ,3.8138275,-8.693039,-4.1805573
1518198317217.00 ,1.5477142,-8.416916,-2.709488
1518198317418.00 ,4.349411,-7.73851,-1.8192291
1518198317620.00 ,5.9871063,-8.24791,-0.35054016
1518198317820.00 ,3.425827,-9.266708,-3.8211212
1518198318022.00 ,4.3660736,-6.331711,-2.4452667
1518198318224.00 ,6.477463,-9.502365,-4.9779816
1518198318425.00 ,2.4236908,-7.571884,1.0610199
1518198318626.00 ,3.028305,-7.448105,0.62065125
1518198318827.00 ,5.2634735,-8.359787,1.234787
1518198319029.00 ,1.1835175,-8.624008,-0.28627014
1518198319231.00 ,5.477707,-6.743515,-0.9384918
1518198319433.00 ,4.799301,-9.4857025,-2.3524323
1518198319634.00 ,7.479599,-9.014389,2.1060028
1518198319834.00 ,7.305832,-7.8051605,-1.414566
1518198320037.00 ,7.9247284,-7.795639,-0.69569397
1518198320238.00 ,3.611496,-10.847275,0.625412
1518198320438.00 ,6.377487,-6.5340424,-1.9549103
1518198320641.00 ,6.0204315,-10.547348,-2.735672
1518198320842.00 ,6.3679657,-8.352646,0.48258972
1518198321043.00 ,3.3068085,-11.435226,2.941513
1518198321244.00 ,7.4557953,-9.335739,-0.612381
1518198321446.00 ,5.715744,-8.200302,0.0398407
1518198321648.00 ,2.1547089,-6.255539,0.72062683
1518198321849.00 ,6.517929,-6.8744354,0.051742554
1518198322051.00 ,6.517929,-7.9979706,-1.5431061
1518198322251.00 ,9.702866,-8.081284,0.83488464
1518198322454.00 ,5.6157684,-10.037949,-1.1717682
1518198322655.00 ,2.3332367,-6.3364716,-1.6930695
1518198322856.00 ,8.879257,-6.736374,-0.31007385
1518198323058.00 ,2.8402557,-11.211472,-0.11012268
1518198323260.00 ,5.965683,-8.976303,-1.0337067
1518198323461.00 ,5.6348114,-7.80278,0.689682
1518198323663.00 ,1.2287445,-9.718979,2.620163
1518198323863.00 ,5.825241,-5.948471,0.86582947
1518198324065.00 ,4.1804047,-8.355026,-1.7882843
1518198324267.00 ,6.1180267,-9.157211,1.4394989
1518198324467.00 ,7.581955,-7.505234,-0.46479797
1518198324669.00 ,7.4391327,-6.8244476,-0.1577301
1518198324870.00 ,6.465561,-11.356674,0.8396454
1518198325073.00 ,7.093979,-11.144821,-1.7763824
1518198325274.00 ,6.7702484,-5.1891327,-2.6380768
1518198325475.00 ,5.6990814,-9.640427,-0.86231995
1518198325676.00 ,5.4181976,-9.492844,-0.6171417
1518198325877.00 ,5.061142,-8.735886,-0.31959534
1518198326080.00 ,6.439377,-7.8503876,-0.076797485
1518198326281.00 ,4.566025,-8.447861,-1.1455841
1518198326481.00 ,5.349167,-8.307419,-1.1860504
1518198326683.00 ,5.765732,-8.019394,-0.9051666
1518198326884.00 ,5.703842,-7.969406,-0.63856506
1518198327087.00 ,5.851425,-8.088425,-0.15296936
1518198327288.00 ,5.4753265,-8.5168915,-0.34339905
1518198327490.00 ,5.7133636,-8.0550995,-0.08631897
1518198327691.00 ,5.684799,-8.178879,-0.2481842
1518198327891.00 ,5.8181,-8.1193695,-0.3314972
1518198328094.00 ,5.5705414,-8.140793,-0.17677307
1518198328296.00 ,5.62529,-8.12413,-0.30055237
1518198328497.00 ,5.6419525,-8.1884,-0.28627014
1518198328698.00 ,5.5895844,-8.216965,-0.31007385
1518198328899.00 ,5.5848236,-8.140793,-0.25056458
1518198329100.00 ,5.587204,-8.133652,-0.28627014
1518198329303.00 ,5.6871796,-8.105087,-0.25294495
1518198329505.00 ,5.56102,-8.259811,-0.22200012
1518198329706.00 ,5.644333,-8.264572,-0.22914124
1518198329906.00 ,5.5848236,-8.181259,-0.298172
1518198330109.00 ,5.68956,-8.174118,-0.038711548
1518198330309.00 ,5.618149,-8.216965,-0.16011047
1518198330512.00 ,5.620529,-8.176498,-0.2481842
1518198330713.00 ,5.682419,-8.157455,-0.2815094
1518198330915.00 ,5.677658,-8.209824,-0.14344788
1518198331116.00 ,5.4991302,-8.231247,-0.21247864
1518198331316.00 ,5.5919647,-8.264572,-0.122024536
1518198331517.00 ,5.632431,-8.25029,-0.007766724
1518198331719.00 ,5.537216,-8.207443,-0.1006012
1518198331920.00 ,5.5276947,-8.278854,-0.11012268
1518198332121.00 ,5.5705414,-8.228867,-0.12678528
1518198332323.00 ,5.549118,-8.274094,-0.17677307
1518198332526.00 ,5.5657806,-8.178879,-0.14344788
1518198332727.00 ,5.503891,-8.262192,-0.08155823
1518198332929.00 ,5.6276703,-8.25267,-0.098220825
1518198333130.00 ,5.5514984,-8.243149,-0.122024536
1518198333330.00 ,5.620529,-8.209824,-0.07203674
1518198333533.00 ,5.537216,-8.295517,-0.04585266
1518198333734.00 ,5.6157684,-8.205063,-0.11250305
1518198333936.00 ,5.5895844,-8.281235,-0.19581604
1518198334136.00 ,5.665756,-8.245529,-0.15296936
1518198334337.00 ,5.587204,-8.231247,-0.18629456
1518198334540.00 ,5.663376,-8.219345,-0.117263794
1518198334740.00 ,5.644333,-8.150314,-0.22676086
1518198334943.00 ,5.6538544,-8.190781,-0.16963196
1518198335144.00 ,5.6276703,-8.2026825,-0.14820862
1518198335345.00 ,5.637192,-8.216965,-0.12678528
1518198335546.00 ,5.62529,-8.143173,-0.16487122
1518198335749.00 ,6.1561127,-8.540695,-0.17915344
1518198335950.00 ,5.215866,-8.064621,-0.18153381
1518198336152.00 ,5.849045,-7.6694794,-1.6216583
1518198336352.00 ,4.2422943,-10.099838,2.0845795
1518198336553.00 ,-0.18519592,1.9186554,1.6085052
1518198336755.00 ,28.950546,-29.426071,-9.00795
1518198336956.00 ,3.8257294,-2.8230438,1.4514008
1518198337158.00 ,-5.2958527,-1.0948944,3.6580048
1518198337359.00 ,-2.7083893,-29.618881,7.4785004
1518198337560.00 ,-2.3941803,1.2640533,-9.146011
1518198337763.00 ,-4.477005,-7.314804,-3.9877472
1518198337963.00 ,-3.0940094,-25.577011,7.461838
1518198338165.00 ,-2.0871124,6.7698517,-4.83992
1518198338366.00 ,-5.4172516,-14.227402,-9.850601
1518198338567.00 ,-1.3087311,-15.105759,-3.7259064
1518198338770.00 ,-8.756912,3.9848175,-2.3809967
1518198338972.00 ,1.1787567,-15.229538,-6.8489532
1518198339173.00 ,0.5765228,-8.471664,-6.141983
1518198339373.00 ,-6.1599274,5.3773346,2.5773163
1518198339574.00 ,7.429611,-18.809616,-8.1772
1518198339776.00 ,-1.4920197,0.84510803,-3.7211456
1518198339977.00 ,-2.1204376,7.3601837,1.9798431
1518198340180.00 ,25.756088,-21.627975,2.5868378
1518198340380.00 ,-0.02571106,-0.41410828,-0.35292053
1518198340581.00 ,0.17662048,3.8872223,3.1105194
1518198340785.00 ,18.803024,-35.015182,1.6180267
1518198340986.00 ,1.431076,0.10481262,-7.265518
1518198341187.00 ,-1.6134186,-2.8706512,0.21360779
1518198341388.00 ,1.0787811,-33.91783,2.8867645
1518198341589.00 ,-0.294693,3.2588043,-2.7785187
1518198341792.00 ,-1.3634796,-5.2891083,-0.9337311
1518198341992.00 ,-1.1920929,-26.53392,7.911728
1518198342193.00 ,1.0954437,4.520401,-0.6909332
1518198342395.00 ,7.4248505,-11.644699,-8.9865265
1518198342596.00 ,-1.6729279,-11.151962,-3.8044586
1518198342798.00 ,0.48368835,8.219498,5.052902
1518198343001.00 ,28.760117,-38.84163,-11.166946
1518198343202.00 ,4.0185394,-0.44029236,-0.5885773
1518198343402.00 ,-2.270401,-2.3969574,4.095993
1518198343605.00 ,-4.529373,-20.894821,10.730087
1518198343805.00 ,-2.0299835,4.6322784,-3.1093903
1518198344008.00 ,-0.19233704,-12.223129,-4.987503
1518198344209.00 ,2.7045746,-10.88298,-9.824417
1518198344411.00 ,1.2715912,7.2173615,-3.3402863
1518198344610.00 ,14.706406,-17.659897,-6.675186
1518198344812.00 ,-0.13996887,-7.3576508,-3.1308136
1518198345014.00 ,-2.706009,4.9869537,5.2790375
1518198345216.00 ,21.588058,-31.5327,6.1526337
1518198345417.00 ,1.3358612,1.6615753,1.2181244
1518198345618.00 ,-1.36586,-5.955612,-1.6502228
1518198345819.00 ,-3.4867706,-13.234787,-13.856766
1518198346022.00 ,-3.5129547,6.674637,1.8846283
1518198346224.00 ,21.242905,-32.537216,-4.5923615
1518198346425.00 ,5.215866,-6.5269012,-1.8358917
1518198346625.00 ,4.504135,-7.621872,-0.11012268
1518198346827.00 ,4.1589813,-8.902512,-1.5288239
1518198347029.00 ,3.1592255,-9.283371,-1.1074982
1518198347229.00 ,4.394638,-8.928696,-0.6504669
1518198347430.00 ,4.527939,-8.643051,-1.1741486
1518198347632.00 ,4.068527,-7.1315155,-0.7028351
1518198347834.00 ,3.4996185,-14.532089,1.1014862
1518198348036.00 ,8.8554535,-8.850143,0.08982849
1518198348236.00 ,4.508896,-12.120773,7.7760468
1518198348439.00 ,2.2999115,-2.5302582,-1.1765289
1518198348639.00 ,5.503891,-2.439804,-8.934158
1518198348842.00 ,9.73143,2.1114655,-9.738724
1518198349042.00 ,10.388412,4.1133575,1.1847992
1518198349245.00 ,9.34581,1.6710968,-1.5145416
1518198349445.00 ,11.773788,2.0948029,-1.8477936
1518198349646.00 ,9.095871,3.687271,-2.190567
1518198349848.00 ,4.6802826,3.2873688,8.966232
1518198350049.00 ,0.5955658,2.468521,10.292099
1518198350250.00 ,0.19328308,2.6446686,9.713669
1518198350452.00 ,0.19328308,2.6446686,9.713669
1518198350653.00 ,-0.001907349,2.5042267,10.085007
1518198350855.00 ,0.06712341,2.3352203,9.768417
1518198351057.00 ,0.23612976,2.9731598,9.663681
1518198351258.00 ,0.8740692,2.9636383,9.737473
1518198351459.00 ,0.40275574,2.1709747,10.161179
1518198351661.00 ,-0.2280426,2.2590485,10.494431
1518198351862.00 ,-0.22090149,2.3923492,9.854111
1518198352063.00 ,-0.23280334,2.4399567,9.939804
1518198352265.00 ,0.15281677,2.52565,10.36113
1518198352466.00 ,0.4646454,2.6113434,10.115952
1518198352668.00 ,0.20994568,2.6422882,10.896713
