Time,AccelX,AccelY,AccelZ
1518195570275.00 ,0.7360077,3.570633,9.456589
1518195570476.00 ,0.6717377,3.5087433,9.311386
1518195570677.00 ,1.450119,3.6253815,9.354233
1518195570879.00 ,0.9573822,4.089554,11.663193
1518195571080.00 ,1.8500214,3.4920807,9.761276
1518195571281.00 ,1.2930145,3.6015778,9.730331
1518195571483.00 ,2.0356903,3.7658234,9.749374
1518195571684.00 ,5.3658295,0.53804016,3.88414
1518195571886.00 ,10.274155,-4.358383,5.4218597
1518195572087.00 ,14.563583,-6.895859,-6.1776886
1518195572288.00 ,6.503647,-6.6578217,0.16838074
1518195572490.00 ,11.342941,-4.222702,2.5677948
1518195572691.00 ,1.6905365,-5.967514,-0.9004059
1518195572893.00 ,7.9366302,-0.76164246,-1.3431549
1518195573094.00 ,9.864731,-8.2026825,-2.3809967
1518195573296.00 ,2.6998138,-8.738266,-1.0670319
1518195573497.00 ,3.2282562,-4.358383,-0.56477356
1518195573699.00 ,1.1811371,-10.254562,-4.0210724
1518195573900.00 ,-1.2111359,-4.453598,1.9012909
1518195574101.00 ,-3.9390411,-18.043137,0.93247986
1518195574303.00 ,5.489609,-21.970749,-10.105301
1518195574504.00 ,0.167099,-0.40220642,3.1581268
1518195574706.00 ,16.59404,-27.49083,-6.027725
1518195574907.00 ,-5.0768585,1.3045197,0.60398865
1518195575110.00 ,2.892624,-11.035324,-8.224808
1518195575310.00 ,1.1954193,2.3661652,-0.44099426
1518195575512.00 ,4.0256805,-10.106979,1.3014374
1518195575714.00 ,-3.572464,-11.463791,-5.518326
1518195575914.00 ,-1.2349396,0.59754944,-3.121292
1518195576117.00 ,-5.200638,-38.83568,4.9576874
1518195576319.00 ,2.4879608,1.8615265,0.69444275
1518195576519.00 ,19.526657,-23.101425,-8.710403
1518195576722.00 ,2.430832,2.3828278,1.0372162
1518195576922.00 ,23.20433,-22.756271,-3.7663727
1518195577125.00 ,-14.867325,-1.5352631,-6.001541
1518195577325.00 ,17.646164,-20.978134,-10.302872
1518195577526.00 ,3.6043549,1.8162994,4.115036
1518195577727.00 ,27.296188,-16.52922,-2.7237701
1518195577929.00 ,-2.1942291,3.3635406,-6.18721
1518195578132.00 ,5.8728485,-10.8806,-10.657547
1518195578333.00 ,-0.41371155,2.5042267,3.2985687
1518195578535.00 ,5.7562103,-16.310226,-5.044632
1518195578736.00 ,-1.7229156,0.62135315,-0.3314972
1518195578936.00 ,9.241074,-10.899643,-6.732315
1518195579139.00 ,-3.4082184,0.62849426,-3.9258575
1518195579339.00 ,5.073044,-10.211716,-1.5573883
1518195579542.00 ,-1.1730499,-3.061081,0.42546082
1518195579743.00 ,7.1487274,-4.7392426,-1.388382
1518195579945.00 ,-4.855484,-10.792526,-7.1012726
1518195580146.00 ,8.205612,-6.2388763,0.43022156
1518195580347.00 ,0.4051361,-12.144577,-10.043411
1518195580548.00 ,1.4477386,-2.6754608,-1.7716217
1518195580750.00 ,-4.757889,-37.214645,-6.7608795
1518195580952.00 ,3.2544403,-6.243637,0.10173035
1518195581153.00 ,-1.9990387,-19.697495,-7.289322
1518195581354.00 ,-2.1156769,-0.20701599,1.4514008
1518195581556.00 ,17.603317,-35.993515,-8.350967
1518195581758.00 ,1.847641,1.9900665,2.703476
1518195581959.00 ,19.564743,-21.378036,-9.26741
1518195582159.00 ,0.36228943,1.0236359,5.514694
1518195582360.00 ,30.281174,-20.37828,-13.333084
1518195582562.00 ,-2.3870392,3.3802032,-0.6338043
1518195582763.00 ,18.38646,-17.060043,-7.867752
1518195582965.00 ,0.42893982,2.9755402,4.7267914
1518195583166.00 ,29.709885,-3.606186,-1.2884064
1518195583367.00 ,3.554367,-5.524765,-1.895401
1518195583569.00 ,4.1589813,-7.731369,-1.7549591
1518195583772.00 ,7.2891693,-6.5411835,-1.8858795
1518195583972.00 ,6.6488495,-7.3481293,-1.221756
1518195584173.00 ,7.1106415,-6.898239,-1.2288971
1518195584375.00 ,6.6678925,-7.5361786,-0.9813385
1518195584576.00 ,6.760727,-7.3505096,-1.093216
1518195584779.00 ,6.946396,-7.114853,-0.7028351
1518195584979.00 ,7.2844086,-6.7982635,-0.7075958
1518195585182.00 ,7.0416107,-6.883957,-0.8766022
1518195585382.00 ,6.965439,-6.8815765,-0.90278625
1518195585583.00 ,7.153488,-7.038681,-1.0146637
1518195585786.00 ,7.3082123,-6.8315887,-0.7909088
1518195585987.00 ,7.1939545,-7.012497,-0.89564514
1518195586188.00 ,7.4177094,-6.743515,-0.824234
1518195586389.00 ,7.427231,-6.7006683,-0.8813629
1518195586591.00 ,7.4319916,-6.769699,-0.8480377
1518195586793.00 ,7.305832,-6.8054047,-0.843277
1518195586995.00 ,7.134445,-6.891098,-0.9884796
1518195587195.00 ,7.120163,-6.876816,-1.0456085
1518195587396.00 ,7.1225433,-6.9387054,-0.99086
1518195587597.00 ,7.312973,-6.795883,-0.95991516
1518195587800.00 ,6.903549,-7.205307,-0.907547
1518195588001.00 ,7.5914764,-6.629257,-0.8766022
1518195588203.00 ,7.2010956,-6.629257,-1.0598907
1518195588405.00 ,7.305832,-7.22435,-0.7980499
1518195588607.00 ,7.55101,-6.698288,-1.1336823
1518195588808.00 ,6.8297577,-6.9958344,-1.1765289
1518195589009.00 ,6.748825,-7.238632,-1.18367
1518195589209.00 ,6.151352,-7.7289886,-0.8908844
1518195589412.00 ,5.7966766,-8.102707,-0.9051666
1518195589613.00 ,4.6017303,-8.552597,-1.0027618
1518195589815.00 ,4.530319,-8.631149,-0.8575592
1518195590016.00 ,4.606491,-8.781113,-0.81947327
1518195590216.00 ,4.380356,-8.416916,-1.2765045
1518195590419.00 ,4.2065887,-8.628769,-1.2598419
1518195590621.00 ,4.1161346,-8.997726,-1.664505
1518195590822.00 ,0.88835144,-10.292648,-1.1931915
1518195591023.00 ,0.68125916,-9.380966,-0.6266632
1518195591225.00 ,1.5834198,-9.671371,-0.6695099
1518195591425.00 ,1.8714447,-9.173874,-0.7837677
1518195591628.00 ,0.22898865,-10.675888,-1.895401
1518195591829.00 ,1.3263397,-9.302414,-0.82899475
1518195592030.00 ,1.4572601,-9.821335,-1.2598419
1518195592231.00 ,1.1478119,-9.547592,-1.0670319
1518195592433.00 ,1.109726,-9.430954,-1.0027618
1518195592635.00 ,0.8764496,-9.519028,-1.2884064
1518195592835.00 ,1.0359344,-9.490463,-1.1884308
1518195593036.00 ,1.0454559,-9.328598,-0.8147125
1518195593239.00 ,0.77171326,-9.361923,-1.1884308
1518195593441.00 ,2.0618744,-10.537827,-7.7225494
1518195593642.00 ,1.6000824,-6.7006683,-4.171036
1518195593844.00 ,1.0121307,-8.0360565,-3.5997467
1518195594046.00 ,3.0806732,-8.069382,-1.7454376
1518195594246.00 ,1.0406952,-9.5047455,-1.5407257
1518195594448.00 ,0.69078064,-9.823715,-0.57429504
1518195594648.00 ,1.0121307,-10.311691,0.90153503
1518195594851.00 ,0.7455292,-9.680893,0.3683319
1518195595052.00 ,2.8878632,-8.216965,-1.2336578
1518195595254.00 ,1.0311737,-8.973923,-3.3569489
1518195595455.00 ,-0.56843567,-8.143173,-3.7473297
1518195595655.00 ,0.43608093,-8.383591,1.0062714
1518195595858.00 ,0.20756531,-8.550217,-0.92658997
1518195596059.00 ,1.219223,-8.976303,-1.5502472
1518195596259.00 ,3.259201,-10.697311,-0.5266876
1518195596461.00 ,-1.8443146,-9.542831,-1.1098785
1518195596664.00 ,-0.44465637,-8.0360565,-2.902298
1518195596865.00 ,1.7238617,-7.455246,-4.7399445
1518195597065.00 ,-0.21376038,-10.021286,-5.28981
1518195597267.00 ,-0.11616516,-9.321457,-1.0122833
1518195597468.00 ,0.56700134,-9.699936,-1.5692902
1518195597669.00 ,1.8500214,-9.583298,-1.2146149
1518195597871.00 ,4.4374847,-9.490463,-0.5219269
1518195598073.00 ,-0.49702454,-11.754196,-0.5457306
1518195598275.00 ,0.34562683,-9.899887,-0.13154602
1518195598477.00 ,1.3620453,-9.181015,-2.523819
1518195598678.00 ,3.6472015,-9.440475,-2.1048737
1518195598878.00 ,4.887375,-10.775864,-3.1474762
1518195599079.00 ,5.2634735,-9.98558,-1.093216
1518195599281.00 ,3.5972137,-9.283371,-0.7194977
1518195599482.00 ,4.3517914,-8.745407,0.14457703
1518195599684.00 ,2.1666107,-9.409531,1.0348358
1518195599885.00 ,1.3644257,-11.121017,-1.3003082
1518195600086.00 ,1.3763275,-8.374069,-2.228653
1518195600290.00 ,3.3853607,-7.050583,-3.7949371
1518195600491.00 ,1.2620697,-10.466415,-3.7758942
1518195600692.00 ,3.6257782,-8.631149,-0.69569397
1518195600894.00 ,3.1068573,-9.000107,-1.1313019
1518195601094.00 ,3.5686493,-8.985825,-1.0694122
1518195601296.00 ,5.830002,-9.131027,-0.29103088
1518195601497.00 ,1.0597382,-8.852524,-1.3455353
1518195601700.00 ,2.1951752,-8.155075,-2.1572418
1518195601900.00 ,2.964035,-8.683517,-2.4643097
1518195602101.00 ,3.0830536,-8.707321,-2.0905914
1518195602303.00 ,3.970932,-8.150314,-2.088211
1518195602505.00 ,3.6091156,-8.63353,-2.7047272
1518195602707.00 ,4.485092,-9.385727,-2.9237213
1518195602907.00 ,4.773117,-8.464523,-2.0334625
1518195603109.00 ,4.908798,-8.069382,-2.1405792
1518195603310.00 ,5.0897064,-8.093185,-2.1167755
1518195603513.00 ,4.9873505,-8.138412,-2.0929718
1518195603713.00 ,5.0206757,-8.169357,-2.152481
1518195603914.00 ,4.9802094,-8.05986,-2.1691437
1518195604115.00 ,5.0706635,-8.095566,-2.2119904
1518195604316.00 ,5.220627,-8.005112,-2.2762604
1518195604520.00 ,5.0182953,-8.112228,-2.3143463
1518195604721.00 ,5.1539764,-7.9979706,-2.3357697
1518195604921.00 ,5.1420746,-8.0360565,-2.2834015
1518195605122.00 ,5.0659027,-8.069382,-2.2595978
1518195605324.00 ,5.0659027,-8.009872,-2.3286285
1518195605526.00 ,5.2491913,-7.950363,-2.254837
1518195605728.00 ,5.201584,-8.062241,-2.171524
1518195605928.00 ,5.2253876,-7.9836884,-2.2786407
1518195606130.00 ,5.144455,-7.99559,-2.2453156
1518195606331.00 ,5.1611176,-8.090805,-2.3500519
1518195606533.00 ,5.11351,-8.05986,-2.364334
1518195606736.00 ,5.0897064,-8.064621,-2.3262482
1518195606936.00 ,5.0206757,-8.074142,-2.20961
1518195607138.00 ,5.04924,-8.05986,-2.300064
1518195607339.00 ,5.1468353,-8.052719,-2.27388
1518195607540.00 ,5.132553,-8.047958,-2.2953033
1518195607742.00 ,5.1230316,-8.024155,-2.2405548
1518195607943.00 ,5.1658783,-8.009872,-2.2762604
1518195608144.00 ,5.11351,-8.050339,-2.3690948
1518195608345.00 ,5.137314,-8.047958,-2.2310333
1518195608548.00 ,5.2682343,-7.950363,-2.3357697
1518195608749.00 ,5.092087,-7.9337006,-2.2643585
1518195608951.00 ,5.2372894,-8.024155,-2.3095856
1518195609153.00 ,5.11351,-8.021774,-2.2643585
1518195609354.00 ,5.203964,-8.097946,-2.3714752
1518195609555.00 ,5.1111298,-7.981308,-2.183426
1518195609757.00 ,5.158737,-7.9836884,-2.266739
1518195609958.00 ,5.156357,-7.9789276,-2.2857819
1518195610160.00 ,5.1277924,-7.981308,-2.319107
1518195610361.00 ,5.208725,-8.067001,-2.2714996
1518195610562.00 ,5.163498,-7.9789276,-2.2000885
1518195610763.00 ,5.1492157,-8.026535,-2.2310333
1518195610964.00 ,5.2372894,-7.9456024,-2.1881866
1518195611167.00 ,5.1873016,-8.088425,-2.2429352
1518195611367.00 ,5.3325043,-7.962265,-2.2524567
1518195611568.00 ,5.1920624,-7.9598846,-2.1548615
1518195611771.00 ,5.2372894,-7.9075165,-2.3214874
1518195611971.00 ,5.1349335,-7.9408417,-2.247696
1518195612174.00 ,5.151596,-8.009872,-2.4095612
1518195612374.00 ,5.1730194,-7.99321,-2.190567
1518195612575.00 ,5.1873016,-8.090805,-2.2834015
1518195612777.00 ,5.1992035,-7.9979706,-2.3072052
1518195612979.00 ,5.132553,-7.781357,-2.2786407
1518195613180.00 ,4.5136566,-8.221725,-2.857071
1518195613381.00 ,4.4422455,-8.400253,-2.4524078
1518195613583.00 ,4.837387,-8.476425,-2.0310822
1518195613785.00 ,3.9090424,-7.371933,-2.319107
1518195613987.00 ,5.0325775,-20.173569,-4.428116
1518195614187.00 ,3.4305878,3.1969147,3.7056122
1518195614388.00 ,3.104477,-13.675156,-12.223831
1518195614590.00 ,1.9690399,0.6903839,3.62706
1518195614793.00 ,1.8952484,-11.235275,-1.8573151
1518195614994.00 ,2.4355927,2.5113678,3.2462006
1518195615194.00 ,6.4369965,-11.71611,-1.3788605
1518195615395.00 ,2.0095062,1.4616241,2.5154266
1518195615597.00 ,-0.19709778,-13.672775,-5.3993073
1518195615800.00 ,0.69792175,1.0069733,3.293808
1518195616002.00 ,2.1832733,-18.026474,-11.481155
1518195616201.00 ,0.9764252,1.518753,5.288559
1518195616403.00 ,0.92167664,-11.242416,-5.185074
1518195616605.00 ,-1.0611725,0.7570343,-2.4238434
1518195616807.00 ,2.014267,-5.5081024,0.80155945
1518195617007.00 ,2.366562,-6.8363495,-0.050613403
1518195617210.00 ,2.7617035,-1.6542816,-0.7242584
1518195617411.00 ,4.316086,-19.02147,-4.806595
1518195617613.00 ,-5.657669,4.5799103,-1.9358673
1518195617814.00 ,5.1016083,-28.816696,-4.4328766
1518195618016.00 ,-0.36134338,3.2540436,3.3152313
1518195618217.00 ,-1.244461,-22.382553,-3.0641632
1518195618418.00 ,0.9145355,-2.3088837,0.78489685
1518195618620.00 ,2.0761566,-5.4509735,-7.815384
1518195618821.00 ,1.0764008,-6.8863373,-0.59809875
1518195619023.00 ,2.4046478,-1.8351898,-1.2955475
1518195619223.00 ,4.1423187,-16.826767,-3.852066
1518195619426.00 ,-2.9726105,6.284256,0.5920868
1518195619626.00 ,3.7281342,-24.141647,-5.0089264
1518195619828.00 ,-4.400833,3.044571,4.691086
1518195620030.00 ,-5.1482697,-19.34996,2.9010468
1518195620230.00 ,3.3758392,-2.8516083,0.92533875
1518195620433.00 ,-0.14472961,-2.304123,-1.0503693
1518195620634.00 ,0.7836151,-14.753464,-6.5037994
1518195620836.00 ,2.5831757,-0.27842712,0.6920624
1518195621037.00 ,9.28392,-29.473679,-0.35292053
1518195621238.00 ,-2.7678986,4.391861,-1.9477692
1518195621439.00 ,-1.680069,-34.598618,-9.753006
1518195621640.00 ,-1.0897369,2.582779,4.2911835
1518195621841.00 ,-9.918533,-20.192612,7.392807
1518195622044.00 ,0.776474,-0.4688568,-0.33625793
1518195622246.00 ,1.5239105,-5.36528,-2.4333649
1518195622447.00 ,0.2980194,-11.404282,-3.844925
1518195622647.00 ,4.6850433,-0.9496918,-4.094864
1518195622850.00 ,4.258957,-24.753403,-3.3164825
1518195623052.00 ,-5.1673126,6.0390778,0.118392944
1518195623252.00 ,-1.9680939,-37.455063,-17.203568
1518195623454.00 ,-1.5229645,0.8712921,5.090988
1518195623656.00 ,1.5500946,-8.278854,-5.320755
1518195623856.00 ,-3.3939362,-7.364792,-2.6380768
1518195624057.00 ,1.0002289,-1.1329803,-2.0453644
1518195624260.00 ,0.91929626,-17.68608,-7.7415924
1518195624462.00 ,2.180893,5.515396,0.13505554
1518195624663.00 ,6.52269,-23.19188,-3.4140778
1518195624864.00 ,0.26945496,-3.3134003,2.177414
1518195625065.00 ,-1.0254669,-8.469284,-0.6361847
1518195625267.00 ,0.47416687,-9.580917,-0.76472473
1518195625469.00 ,-0.31373596,-9.323837,-0.91944885
1518195625670.00 ,0.11949158,-9.695175,-0.9242096
1518195625872.00 ,-0.018569946,-9.442856,-1.1908112
1518195626072.00 ,0.6217499,-9.778488,-0.888504
1518195626273.00 ,0.4217987,-9.549973,-1.1027374
1518195626475.00 ,0.6622162,-9.440475,-1.1551056
1518195626676.00 ,0.06474304,-9.483322,-0.9408722
1518195626877.00 ,0.73838806,-9.576157,-1.093216
1518195627079.00 ,0.4051361,-9.452377,-1.0646515
1518195627282.00 ,0.2742157,-9.46904,-0.91944885
1518195627483.00 ,0.4551239,-9.388107,-0.7742462
1518195627685.00 ,0.09806824,-9.573776,-0.94563293
1518195627886.00 ,0.1337738,-9.578537,-0.8766022
1518195628086.00 ,0.51701355,-9.757065,-0.8647003
1518195628289.00 ,0.39085388,-9.590439,-0.76472473
1518195628490.00 ,1.0787811,-9.288132,-1.2193756
1518195628692.00 ,1.1811371,-9.435715,-1.0598907
1518195628893.00 ,1.2549286,-9.442856,-0.9480133
1518195629093.00 ,1.431076,-9.6523285,-0.5957184
1518195629294.00 ,2.2975311,-9.366684,-0.9884796
1518195629497.00 ,1.109726,-9.476181,-0.8099518
1518195629699.00 ,2.2165985,-9.181015,-0.9503937
1518195629899.00 ,1.9333344,-9.376205,-0.61476135
1518195630101.00 ,2.1309052,-9.204819,-1.2598419
1518195630304.00 ,1.283493,-9.619003,-0.24580383
1518195630505.00 ,2.1904144,-9.2548065,-1.0075226
1518195630706.00 ,1.5429535,-9.3405,-0.3719635
1518195630906.00 ,1.340622,-9.511887,-0.16011047
1518195631109.00 ,1.9857025,-9.580917,-0.97657776
1518195631310.00 ,1.6857758,-9.347641,-0.9408722
1518195631511.00 ,2.0118866,-9.449997,-0.9884796
1518195631713.00 ,2.0190277,-9.388107,-1.1693878
1518195631913.00 ,1.9595184,-9.416672,-1.1979523
1518195632116.00 ,1.9738007,-9.378586,-1.0955963
1518195632317.00 ,2.1594696,-9.283371,-1.202713
1518195632518.00 ,2.1951752,-9.264328,-1.4502716
1518195632720.00 ,2.0475922,-9.330978,-1.3169708
1518195632921.00 ,2.0642548,-9.345261,-1.2288971
1518195633122.00 ,2.1499481,-9.4857025,-1.1622467
1518195633324.00 ,2.1285248,-9.350021,-1.2741241
1518195633526.00 ,2.0166473,-9.326218,-1.2574615
1518195633728.00 ,1.828598,-9.388107,-1.1789093
1518195633928.00 ,1.9904633,-9.304794,-1.0003815
1518195634129.00 ,2.0499725,-9.528549,-0.9741974
1518195634332.00 ,1.9238129,-9.395248,-0.9337311
1518195634532.00 ,1.9333344,-9.409531,-0.9646759
1518195634734.00 ,1.7667084,-9.423813,-0.87184143
1518195634935.00 ,2.1285248,-9.330978,-0.7837677
1518195635138.00 ,2.7498016,-9.635666,-1.1289215
1518195635339.00 ,2.1927948,-9.252426,-0.6861725
1518195635540.00 ,2.0904388,-9.40715,-0.65760803
1518195635742.00 ,1.9190521,-9.626144,-1.1408234
1518195635943.00 ,1.9595184,-10.854416,-0.7361603
1518195636145.00 ,-3.6914825,-6.7577972,-0.61476135
1518195636346.00 ,1.1406708,-11.549484,-10.624222
1518195636548.00 ,2.1285248,0.88557434,3.7960663
1518195636748.00 ,10.416977,-27.505112,-4.9398956
1518195636950.00 ,0.81455994,6.034317,-1.7430573
1518195637152.00 ,1.8309784,-18.012192,-11.490677
1518195637352.00 ,0.314682,1.2711945,3.4366302
1518195637555.00 ,28.150742,-33.77263,3.384262
1518195637755.00 ,-4.8911896,3.8681793,-6.846573
1518195637956.00 ,2.3522797,-12.787277,-11.090775
1518195638158.00 ,-0.4660797,6.258072,-1.2003326
1518195638360.00 ,11.897568,-19.485641,-4.659012
1518195638561.00 ,-5.6029205,4.1252594,-3.1903229
1518195638763.00 ,0.6669769,-10.164108,-8.179581
1518195638964.00 ,-5.1220856,-0.5997772,-2.6380768
1518195639166.00 ,-3.5819855,-13.182419,-3.3617096
1518195639367.00 ,-1.8609772,-1.9851532,-2.0120392
1518195639568.00 ,0.095687866,-9.72374,-4.466202
1518195639770.00 ,-2.463211,1.095047,-0.8075714
1518195639971.00 ,-2.475113,-14.184555,-2.5904694
1518195640173.00 ,-0.673172,-1.8708954,-2.6499786
1518195640374.00 ,2.2165985,-9.116745,-2.319107
1518195640575.00 ,-3.8081207,0.6189728,2.324997
1518195640776.00 ,-6.319412,-14.391647,-0.30769348
1518195640979.00 ,-3.9438019,-4.8415985,-4.885147
1518195641181.00 ,0.8074188,-7.700424,-2.300064
1518195641382.00 ,-5.362503,-7.191025,-0.3719635
1518195641582.00 ,-2.0942535,-7.7599335,0.006515503
1518195641785.00 ,-1.0230865,-13.591843,-8.472366
1518195641986.00 ,2.9973602,-3.9775238,-0.86231995
1518195642188.00 ,-17.676163,-26.417282,9.842209
1518195642388.00 ,-0.506546,-6.531662,0.1874237
1518195642589.00 ,-7.8404694,-26.298264,-5.570694
1518195642792.00 ,4.137558,-1.4043427,2.0893402
1518195642993.00 ,-10.939713,-38.84163,-15.313553
1518195643194.00 ,1.7571869,-1.9375458,2.1797943
1518195643395.00 ,-6.695511,-24.950974,-6.1253204
1518195643596.00 ,5.7062225,0.49519348,2.0869598
1518195643799.00 ,-13.1653595,-38.01683,4.6506195
1518195644000.00 ,-3.174942,0.5737457,0.3278656
1518195644201.00 ,0.3884735,-33.617905,-9.055557
1518195644404.00 ,4.913559,0.33332825,2.8296356
1518195644606.00 ,-1.5229645,-38.84163,-6.758499
1518195644807.00 ,3.2449188,-0.6854706,1.927475
1518195645008.00 ,-9.96376,-24.365402,-5.853958
1518195645209.00 ,3.5234222,-1.7066498,2.3273773
1518195645411.00 ,-15.717117,-24.101181,-3.787796
1518195645612.00 ,0.012374878,-2.9611053,1.991745
1518195645812.00 ,-5.5267487,-13.346664,-4.4852448
1518195646014.00 ,0.8240814,-4.7249603,-1.0908356
1518195646216.00 ,2.085678,-11.52092,-3.466446
1518195646417.00 ,2.7498016,-13.9179535,-2.0263214
1518195646619.00 ,2.6807709,-9.914169,-0.44337463
1518195646821.00 ,2.4498749,-9.366684,-1.2265167
1518195647022.00 ,2.8664398,-9.490463,-0.119644165
1518195647224.00 ,2.6212616,-8.881088,0.2374115
1518195647425.00 ,2.8307343,-9.435715,-0.43623352
1518195647627.00 ,2.6641083,-9.5047455,-0.25532532
1518195647827.00 ,3.0616302,-9.264328,-0.4719391
1518195648029.00 ,2.6212616,-9.495224,-0.28388977
1518195648230.00 ,2.8021698,-9.361923,-0.41004944
1518195648431.00 ,2.778366,-9.314316,-0.4386139
1518195648632.00 ,2.5950775,-9.216721,-0.2815094
1518195648834.00 ,2.925949,-9.373825,-0.35054016
1518195649036.00 ,2.9592743,-9.295273,-0.64808655
1518195649237.00 ,2.918808,-9.204819,-0.48860168
1518195649439.00 ,2.7569427,-9.354782,-0.510025
1518195649641.00 ,2.7402802,-9.364304,-0.49336243
1518195649842.00 ,2.7807465,-9.352402,-0.5552521
1518195650044.00 ,2.7236176,-9.319077,-0.4219513
1518195650245.00 ,2.6926727,-9.373825,-0.4790802
1518195650447.00 ,2.745041,-9.335739,-0.6457062
1518195650648.00 ,2.8497772,-9.292892,-0.59809875
1518195650849.00 ,2.7807465,-9.242905,-0.6004791
1518195651049.00 ,2.7426605,-9.245285,-0.4957428
1518195651251.00 ,2.7855072,-9.347641,-0.4219513
1518195651454.00 ,2.7855072,-9.388107,-0.4386139
1518195651655.00 ,2.7640839,-9.34288,-0.49098206
1518195651855.00 ,2.7164764,-9.292892,-0.50764465
1518195652058.00 ,2.6641083,-9.378586,-0.41481018
1518195652259.00 ,2.7688446,-9.2548065,-0.53144836
1518195652461.00 ,2.7212372,-9.347641,-0.30055237
1518195652662.00 ,2.7498016,-9.34288,-0.43623352
1518195652864.00 ,2.7093353,-9.385727,-0.34339905
1518195653064.00 ,2.6712494,-9.435715,-0.28627014
1518195653265.00 ,2.7307587,-9.316696,-0.18629456
1518195653468.00 ,2.6831512,-9.34288,-0.3481598
1518195653668.00 ,2.6831512,-9.321457,-0.22200012
1518195653870.00 ,2.790268,-9.297653,-0.34339905
1518195654071.00 ,2.6998138,-9.359543,-0.31245422
1518195654274.00 ,2.6974335,-9.347641,-0.25532532
1518195654476.00 ,2.6736298,-9.395248,-0.1910553
1518195654677.00 ,2.7164764,-9.300034,-0.4219513
1518195654878.00 ,2.5831757,-9.40239,-0.22676086
1518195655079.00 ,3.0592499,-9.1905365,0.21836853
1518195655281.00 ,2.6641083,-9.269089,-0.41004944
1518195655483.00 ,2.6522064,-9.430954,-0.40052795
1518195655684.00 ,2.604599,-9.47142,-0.4290924
1518195655885.00 ,2.3022919,-9.369064,-0.36006165
1518195656086.00 ,2.623642,-9.3405,-0.2886505
1518195656288.00 ,2.925949,-9.40477,-0.43385315
1518195656488.00 ,2.6403046,-9.464279,-0.8980255
1518195656691.00 ,2.2308807,-9.495224,-1.9715729
1518195656892.00 ,2.630783,-7.2029266,-2.792801
1518195657093.00 ,3.1711273,-8.0360565,-3.473587
1518195657295.00 ,3.490097,-6.736374,-2.311966
1518195657497.00 ,3.2449188,-9.673752,0.52067566
1518195657698.00 ,2.3784637,-9.837997,-1.1598663
1518195657899.00 ,5.223007,-9.252426,0.9277191
1518195658100.00 ,2.0713959,-10.149826,-6.26E-04
1518195658302.00 ,2.861679,-8.107468,-2.1286774
1518195658504.00 ,2.2285004,-9.4857025,-2.8142242
1518195658705.00 ,0.74790955,-10.185532,-1.8001862
1518195658906.00 ,4.9040375,-8.421677,-0.6433258
1518195659107.00 ,5.3729706,-8.259811,-1.0027618
1518195659309.00 ,4.054245,-8.843002,-0.50764465
1518195659510.00 ,2.5879364,-11.642319,-1.0908356
1518195659713.00 ,4.363693,-8.657333,-1.9192047
1518195659913.00 ,5.727646,-7.0220184,-3.1046295
1518195660115.00 ,1.5429535,-9.588058,-3.223648
1518195660316.00 ,1.9023895,-9.709457,-0.17201233
1518195660518.00 ,4.368454,-9.050095,-1.1241608
1518195660720.00 ,3.8757172,-8.900131,-0.69807434
1518195660921.00 ,3.868576,-8.907272,-1.1360626
1518195661122.00 ,1.9857025,-9.619003,-2.0977325
1518195661324.00 ,4.3779755,-7.9646454,-1.831131
1518195661525.00 ,3.9042816,-7.179123,-2.3238678
1518195661727.00 ,2.476059,-8.447861,-3.5592804
1518195661927.00 ,5.3087006,-7.99321,1.3228607
1518195662130.00 ,4.201828,-8.478806,-0.445755
1518195662331.00 ,2.8973846,-9.197678,0.772995
1518195662532.00 ,4.516037,-9.721359,0.5659027
1518195662734.00 ,3.2306366,-7.5147552,-0.29579163
1518195662934.00 ,3.0544891,-8.076523,-2.0453644
1518195663135.00 ,1.3620453,-10.464035,-4.5423737
1518195663338.00 ,6.2061005,-5.4509735,0.63731384
1518195663540.00 ,4.4993744,-8.136032,-1.5740509
1518195663740.00 ,3.7067108,-8.802536,-0.9218292
1518195663941.00 ,4.906418,-8.833481,-0.08869934
1518195664143.00 ,4.5969696,-8.969162,-0.09346008
1518195664345.00 ,3.5115204,-9.419052,-1.7311554
1518195664546.00 ,2.5189056,-7.1815033,-0.51716614
1518195664749.00 ,4.297043,-8.162216,-3.9520416
1518195664950.00 ,2.566513,-11.799423,-2.792801
1518195665151.00 ,1.809555,-10.083176,-0.33625793
1518195665352.00 ,2.2285004,-9.492844,-0.26722717
1518195665554.00 ,4.6874237,-8.788254,0.39213562
1518195665754.00 ,2.085678,-9.14769,0.4849701
1518195665957.00 ,4.6350555,-8.421677,-1.2193756
1518195666158.00 ,4.363693,-8.854904,-0.86946106
1518195666360.00 ,3.675766,-8.533554,-2.928482
1518195666561.00 ,3.6710052,-8.31694,-3.3783722
1518195666763.00 ,3.206833,-10.999619,-4.8113556
1518195666963.00 ,2.925949,-10.180771,2.0441132
1518195667165.00 ,3.1973114,-9.359543,-0.5861969
1518195667366.00 ,4.337509,-8.593063,-0.824234
1518195667567.00 ,4.8469086,-8.695419,-0.095840454
1518195667770.00 ,2.745041,-9.119125,-1.4740753
1518195667970.00 ,-1.7205353,-8.709702,-5.9658356
1518195668172.00 ,4.0375824,-8.495468,-2.2262726
1518195668373.00 ,4.039963,-8.471664,-2.1310577
1518195668574.00 ,4.7064667,-8.819199,-1.747818
1518195668775.00 ,4.285141,-8.362167,-1.6430817
1518195668979.00 ,4.21373,-8.8311,-1.7240143
1518195669179.00 ,4.356552,-8.654953,-1.5312042
1518195669380.00 ,4.0828094,-8.631149,-1.5074005
1518195669582.00 ,4.6683807,-8.676376,-1.4550323
1518195669783.00 ,4.228012,-8.940598,-1.5002594
1518195669985.00 ,4.0637665,-8.562119,-1.4288483
1518195670187.00 ,4.0304413,-8.709702,-1.7192535
1518195670389.00 ,3.6138763,-8.543076,-1.2122345
1518195670590.00 ,4.092331,-8.531174,-1.7692413
1518195670791.00 ,4.2446747,-8.666855,-1.4550323
1518195670993.00 ,3.7876434,-9.007248,-1.2288971
1518195671194.00 ,3.7519379,-9.176254,-0.9146881
1518195671395.00 ,4.02092,-8.8953705,-0.971817
1518195671596.00 ,3.6852875,-8.983444,-1.2527008
1518195671798.00 ,4.047104,-8.843002,-1.0146637
1518195672000.00 ,3.8519135,-8.9596405,-1.1551056
1518195672201.00 ,4.001877,-8.709702,-1.157486
1518195672402.00 ,4.0375824,-8.773972,-1.0955963
1518195672605.00 ,3.9804535,-8.859665,-1.2812653
1518195672806.00 ,3.913803,-8.969162,-1.1217804
1518195673007.00 ,3.9685516,-8.807297,-1.2598419
1518195673209.00 ,3.9780731,-8.797775,-1.1289215
1518195673411.00 ,4.035202,-8.833481,-1.2479401
1518195673612.00 ,4.066147,-8.888229,-1.2360382
1518195673813.00 ,4.0518646,-8.797775,-1.2693634
1518195674014.00 ,3.9614105,-8.835861,-1.331253
1518195674216.00 ,4.125656,-8.76207,-1.157486
1518195674417.00 ,3.694809,-8.992966,-1.138443
1518195674617.00 ,4.1804047,-8.769211,-1.3098297
1518195674819.00 ,3.9280853,-8.938217,-1.2622223
1518195675021.00 ,3.8114471,-8.976303,-1.2765045
1518195675223.00 ,4.0637665,-8.869186,-0.9837189
1518195675425.00 ,3.9828339,-8.719223,-1.0479889
1518195675625.00 ,4.15184,-8.807297,-1.1741486
1518195675827.00 ,4.035202,-8.793015,-1.1265411
1518195676029.00 ,4.3398895,-8.669235,-1.2646027
1518195676229.00 ,4.266098,-8.683517,-1.3169708
1518195676432.00 ,4.2232513,-8.785873,-1.2765045
1518195676633.00 ,4.273239,-8.776352,-1.2527008
1518195676835.00 ,4.316086,-8.685898,-1.221756
1518195677036.00 ,4.2494354,-8.676376,-1.1527252
1518195677237.00 ,4.2494354,-8.773972,-1.0337067
1518195677439.00 ,4.189926,-8.8311,-1.0908356
1518195677640.00 ,4.3470306,-8.707321,-1.1455841
1518195677842.00 ,3.6091156,-8.816818,-1.5573883
1518195678044.00 ,-0.5232086,-0.45933533,1.8132172
1518195678245.00 ,8.610275,-15.5794525,-2.3238678
1518195678446.00 ,-1.1468658,1.7020416,-1.2693634
1518195678648.00 ,14.47789,-21.389938,-5.987259
1518195678849.00 ,-5.414871,4.282364,-0.04585266
1518195679050.00 ,26.374985,-25.327072,-5.2588654
1518195679251.00 ,0.48368835,2.2923737,1.3133392
1518195679453.00 ,8.607895,-32.42534,-4.171036
1518195679653.00 ,2.0737762,-0.0665741,0.74443054
1518195679854.00 ,0.59080505,-11.175766,-1.3860016
1518195680056.00 ,2.0285492,-3.927536,-2.319107
1518195680258.00 ,1.3620453,-5.1486664,-5.7277985
1518195680459.00 ,5.4753265,-6.731613,-1.1313019
1518195680662.00 ,3.682907,-2.208908,-2.8784943
1518195680864.00 ,3.6900482,-16.738693,-1.5597687
1518195681063.00 ,-2.3679962,3.3563995,-2.992752
1518195681266.00 ,6.210861,-23.932175,-7.346451
1518195681466.00 ,-6.650284,5.758194,1.1943207
1518195681669.00 ,20.978683,-34.16777,-13.468765
1518195681870.00 ,0.6217499,3.2873688,3.165268
1518195682071.00 ,4.1018524,-24.850998,-8.4414215
1518195682272.00 ,1.7548065,-0.47599792,3.0771942
1518195682475.00 ,-0.11616516,-8.562119,-2.6618805
1518195682676.00 ,3.8400116,-6.891098,-4.237686
1518195682878.00 ,5.106369,-4.2703094,-3.537857
1518195683078.00 ,7.6057587,-18.12407,-7.282181
1518195683281.00 ,0.7264862,1.8853302,-3.6187897
1518195683482.00 ,10.7668915,-28.035934,-3.3141022
1518195683682.00 ,-4.18898,4.9012604,3.3271332
1518195683883.00 ,-1.1421051,-27.095688,-4.530472
1518195684085.00 ,1.7595673,1.4235382,0.7563324
1518195684287.00 ,-2.3584747,-9.842758,-4.7518463
1518195684488.00 ,-1.5348663,-0.27842712,0.10411072
1518195684690.00 ,5.203964,-5.1748505,-7.282181
1518195684892.00 ,1.783371,-9.623764,-1.0003815
1518195685093.00 ,4.720749,-1.278183,-6.5799713
1518195685294.00 ,0.39323425,-16.165024,-2.0501251
1518195685495.00 ,-5.331558,2.608963,1.1181488
1518195685698.00 ,3.8281097,-23.487045,-5.7016144
1518195685898.00 ,-9.00209,3.4135284,4.905319
1518195686099.00 ,16.234604,-30.482956,-6.0991364
1518195686301.00 ,-4.1604156,3.5611115,2.941513
1518195686504.00 ,10.4526825,-35.32701,-17.122635
1518195686705.00 ,0.009994507,1.2021637,1.6299286
1518195686905.00 ,1.9618988,-9.66185,-4.6566315
1518195687108.00 ,-0.654129,-4.1155853,-2.0929718
1518195687310.00 ,1.1335297,-0.14274597,-0.23390198
1518195687509.00 ,2.6926727,-14.862961,-5.4897614
1518195687710.00 ,1.6119843,2.2923737,-5.0731964
1518195687912.00 ,16.075119,-26.762436,-3.2498322
1518195688115.00 ,-4.995926,3.687271,2.0845795
1518195688316.00 ,16.198898,-18.842941,-0.46955872
1518195688518.00 ,0.71458435,-7.621872,-1.3479156
1518195688719.00 ,3.9042816,-9.966537,-0.13868713
1518195688920.00 ,3.0378265,-9.814194,-0.41004944
1518195689122.00 ,3.323471,-9.802292,-0.5695343
1518195689323.00 ,3.168747,-9.116745,-0.18391418
1518195689525.00 ,3.0616302,-9.40477,-0.4719391
1518195689726.00 ,3.149704,-9.357162,-0.4386139
1518195689927.00 ,3.4282074,-9.121506,-0.19343567
1518195690129.00 ,3.2996674,-9.2548065,-0.15058899
1518195690330.00 ,3.31633,-9.623764,-0.119644165
1518195690531.00 ,3.233017,-9.0429535,-0.06489563
1518195690733.00 ,3.6710052,-9.064377,-0.16249084
1518195690934.00 ,3.44487,-9.090561,-0.067276
1518195691135.00 ,3.7090912,-9.0858,-0.21009827
1518195691338.00 ,3.7186127,-8.983444,-0.1910553
1518195691539.00 ,3.8257294,-9.040573,-0.37434387
1518195691741.00 ,3.8138275,-9.033432,-0.3719635
1518195691941.00 ,3.823349,-9.142929,-0.2815094
1518195692143.00 ,3.8661957,-9.054855,-0.3219757
1518195692345.00 ,4.099472,-8.89299,-0.37434387
1518195692546.00 ,4.0947113,-8.819199,-0.41004944
1518195692747.00 ,4.0947113,-8.966782,-0.50050354
1518195692949.00 ,3.932846,-8.992966,-0.3648224
1518195693151.00 ,4.2256317,-8.776352,-0.27912903
1518195693351.00 ,3.7828827,-9.033432,-0.2481842
1518195693553.00 ,4.2899017,-8.833481,-0.4290924
1518195693754.00 ,4.330368,-8.800156,-0.298172
1518195693956.00 ,4.1399384,-9.140549,-0.12678528
1518195694158.00 ,4.170883,-8.928696,-0.23628235
1518195694359.00 ,4.1780243,-8.938217,-0.31245422
1518195694560.00 ,4.2613373,-8.843002,-0.2577057
1518195694762.00 ,4.194687,-8.909653,-0.36244202
1518195694963.00 ,4.285141,-8.866806,-0.4124298
1518195695164.00 ,4.2184906,-8.871567,-0.27674866
1518195695365.00 ,4.239914,-8.8120575,-0.26246643
1518195695566.00 ,4.3089447,-8.921555,-0.28388977
1518195695768.00 ,4.2065887,-8.973923,-0.20533752
1518195695969.00 ,4.2875214,-8.821579,-0.2577057
1518195696172.00 ,4.163742,-9.012009,-0.20295715
1518195696372.00 ,4.21373,-8.888229,-0.24342346
1518195696573.00 ,4.2256317,-8.969162,-0.10298157
1518195696777.00 ,4.201828,-8.800156,-0.21009827
1518195696977.00 ,4.2303925,-8.845383,-0.16011047
1518195697180.00 ,4.356552,-8.845383,-0.18391418
1518195697380.00 ,4.1780243,-8.926315,-0.2243805
1518195697581.00 ,4.258957,-8.8953705,-0.18153381
1518195697783.00 ,4.247055,-8.89061,-0.24342346
1518195697985.00 ,4.15184,-8.940598,-0.30769348
1518195698185.00 ,4.5374603,-8.952499,-0.13630676
1518195698388.00 ,4.7326508,-9.207199,-0.64094543
1518195698588.00 ,4.21373,-9.033432,-0.19581604
1518195698791.00 ,5.008774,-8.669235,-0.23390198
1518195698992.00 ,4.1970673,-8.847763,-0.5838165
1518195699192.00 ,3.4091644,-10.811569,-2.2786407
1518195699394.00 ,2.4213104,-7.3124237,-3.2450714
1518195699595.00 ,3.2496796,-9.759445,-9.376907
1518195699797.00 ,3.2044525,0.5594635,3.2247772
1518195700000.00 ,11.023972,-17.062424,-4.461441
1518195700201.00 ,-1.763382,4.5251617,-0.62190247
1518195700401.00 ,3.4329681,-13.465683,-9.736343
1518195700603.00 ,-5.7552643,3.7205963,-2.7856598
1518195700804.00 ,3.021164,-10.652084,-5.6325836
1518195701006.00 ,-2.6584015,-4.4964447,-0.7433014
1518195701207.00 ,3.7067108,-7.2529144,-5.980118
1518195701410.00 ,-5.6981354,-3.7775726,-10.507584
1518195701611.00 ,5.7181244,-8.971542,2.286911
1518195701811.00 ,6.5726776,-16.031723,-11.074112
1518195702014.00 ,3.1830292,-4.408371,-0.9242096
1518195702214.00 ,-7.390579,-21.711288,5.005295
1518195702417.00 ,5.658615,-2.8325653,4.250717
1518195702618.00 ,-8.880692,-16.710129,-7.1917267
1518195702820.00 ,3.7757416,-2.2041473,0.80870056
1518195703021.00 ,1.8428802,-28.77147,1.8298798
1518195703222.00 ,2.22612,-3.0515594,3.5842133
1518195703424.00 ,0.9978485,-17.926498,-6.3133698
1518195703625.00 ,0.19328308,-1.4186249,2.248825
1518195703825.00 ,16.922531,-29.121384,-10.5837555
1518195704028.00 ,0.99546814,-0.0499115,0.98960876
1518195704230.00 ,12.928268,-23.227585,-9.952957
1518195704431.00 ,7.1796722,0.633255,4.3364105
1518195704633.00 ,24.506393,-24.008347,-5.7397003
1518195704833.00 ,-3.3177643,0.45948792,1.3490448
1518195705034.00 ,14.044662,-28.233505,-13.083145
1518195705237.00 ,1.8381195,2.2328644,6.919113
1518195705437.00 ,19.488571,-25.067612,0.9467621
1518195705639.00 ,-4.9483185,4.4989777,-1.2550812
1518195705840.00 ,15.103928,-23.729843,-8.846085
1518195706041.00 ,2.2165985,3.3254547,3.8032074
1518195706243.00 ,11.457199,-18.393051,-4.1496124
1518195706446.00 ,-4.215164,4.5751495,-2.7023468
1518195706647.00 ,-0.054275513,-16.543503,-8.084366
1518195706848.00 ,-1.4563141,2.8374786,3.108139
1518195707050.00 ,5.3325043,-17.23143,-4.128189
1518195707251.00 ,-3.0368805,3.80867,-2.0025177
1518195707452.00 ,-0.21614075,-12.251694,-8.339066
1518195707654.00 ,-1.3753815,4.0348053,-0.11250305
1518195707855.00 ,-0.98976135,-16.424484,-4.718521
1518195708057.00 ,-1.2563629,-0.4283905,-1.9430084
1518195708259.00 ,1.469162,-11.282883,-8.512833
1518195708460.00 ,-1.2230377,0.72132874,0.5516205
1518195708661.00 ,1.450119,-14.284531,-3.7735138
1518195708863.00 ,-0.43037415,-2.0565643,-0.28627014
1518195709063.00 ,-0.90644836,-10.061752,-4.3924103
1518195709264.00 ,-4.3579865,1.4116364,-0.14582825
1518195709467.00 ,1.2358856,-13.094345,-0.510025
1518195709668.00 ,-0.4756012,-6.103195,-1.2360382
1518195709870.00 ,0.12187195,-7.2838593,1.5537567
1518195710070.00 ,3.6543427,-9.778488,-0.5362091
1518195710272.00 ,2.983078,-9.780869,-0.7528229
1518195710475.00 ,3.0830536,-9.373825,-0.676651
1518195710676.00 ,3.085434,-9.250046,-0.6695099
1518195710876.00 ,3.0687714,-9.159592,-0.9980011
1518195711077.00 ,3.3020477,-9.121506,-0.68141174
1518195711278.00 ,2.9211884,-9.109604,-0.90992737
1518195711482.00 ,3.073532,-9.173874,-0.83613586
1518195711682.00 ,3.1520844,-9.157211,-0.7694855
1518195711883.00 ,2.990219,-9.061996,-0.85279846
1518195712084.00 ,3.2901459,-9.038193,-0.81233215
1518195712287.00 ,3.3472748,-9.14769,-0.67427063
1518195712488.00 ,3.1711273,-9.27861,-0.8004303
1518195712690.00 ,3.4091644,-9.223862,-0.72187805
1518195712892.00 ,3.040207,-9.280991,-0.6933136
1518195713092.00 ,3.156845,-9.131027,-0.71473694
1518195713294.00 ,3.130661,-9.195297,-0.85279846
1518195713495.00 ,3.618637,-9.131027,-1.0408478
1518195713697.00 ,3.0687714,-9.231003,-0.9408722
1518195713898.00 ,3.2877655,-9.14769,-0.77900696
1518195714098.00 ,3.0687714,-9.154831,-0.8932648
1518195714301.00 ,3.3686981,-9.050095,-1.0289459
1518195714503.00 ,3.2663422,-9.1262665,-0.9551544
1518195714703.00 ,3.304428,-9.1072235,-0.8813629
1518195714904.00 ,3.0830536,-9.0429535,-0.80281067
1518195715107.00 ,3.297287,-9.166733,-0.7694855
1518195715307.00 ,3.259201,-9.119125,-0.7932892
1518195715510.00 ,3.3377533,-9.142929,-0.85517883
1518195715712.00 ,3.2496796,-9.152451,-0.7194977
1518195715912.00 ,3.4686737,-9.195297,-0.65760803
1518195716114.00 ,3.240158,-9.245285,-0.7980499
1518195716316.00 ,3.104477,-9.216721,-0.7694855
1518195716516.00 ,3.1592255,-9.161972,-0.67189026
1518195716718.00 ,3.2615814,-9.21196,-0.843277
1518195716919.00 ,3.1806488,-9.15007,-0.75520325
1518195717122.00 ,3.25206,-9.1905365,-0.51716614
1518195717322.00 ,3.2044525,-9.21196,-0.6004791
1518195717524.00 ,3.418686,-9.161972,-0.76234436
1518195717725.00 ,3.304428,-9.188156,-0.8075714
1518195717926.00 ,3.361557,-9.238144,-0.5838165
1518195718128.00 ,3.2639618,-9.166733,-0.7909088
1518195718330.00 ,3.2258759,-9.092941,-0.78852844
1518195718531.00 ,3.3567963,-9.095322,-0.8742218
1518195718733.00 ,3.361557,-9.123886,-0.8266144
1518195718933.00 ,3.3329926,-9.178635,-0.76234436
1518195719136.00 ,3.259201,-9.192917,-0.8266144
1518195719338.00 ,3.25206,-9.15007,-0.71235657
1518195719539.00 ,3.2020721,-9.131027,-0.72901917
1518195719739.00 ,3.240158,-9.138168,-0.70521545
1518195719940.00 ,3.156845,-9.178635,-0.6933136
1518195720141.00 ,3.1282806,-9.176254,-0.76472473
1518195720345.00 ,3.1854095,-9.27861,-0.824234
1518195720546.00 ,3.130661,-9.247665,-0.80519104
1518195720747.00 ,2.4141693,-9.154831,-2.9832306
1518195720949.00 ,2.6284027,-6.8482513,-3.0736847
1518195721150.00 ,3.1592255,-8.400253,-3.2450714
1518195721350.00 ,2.4736786,-8.809677,-2.2215118
1518195721553.00 ,1.9285736,-9.714218,-0.71235657
1518195721754.00 ,1.9547577,-9.478561,-0.59809875
1518195721955.00 ,3.8471527,-9.538071,0.58018494
1518195722156.00 ,-0.31373596,-10.11174,-0.59095764
1518195722357.00 ,3.3282318,-7.9860687,-2.311966
1518195722560.00 ,1.5858002,-8.743027,-2.5738068
1518195722761.00 ,2.4546356,-8.612106,-3.8163605
1518195722963.00 ,1.5810394,-7.4457245,-2.5714264
1518195723163.00 ,3.925705,-9.345261,-1.9929962
1518195723364.00 ,4.168503,-9.771347,-1.5835724
1518195723566.00 ,4.1089935,-9.371445,-0.06965637
1518195723769.00 ,2.476059,-10.371201,-0.759964
1518195723969.00 ,4.3065643,-10.097458,-1.7906647
1518195724170.00 ,3.3210907,-7.576645,-3.678299
1518195724372.00 ,2.873581,-8.366928,-4.6709137
1518195724573.00 ,3.2639618,-8.012253,-2.8356476
1518195724776.00 ,4.8992767,-9.776108,-2.4381256
1518195724977.00 ,3.9399872,-9.21196,-1.2503204
1518195725179.00 ,4.1804047,-8.681137,-0.10536194
1518195725380.00 ,3.4591522,-10.578293,-0.5028839
1518195725580.00 ,5.1730194,-10.271225,-1.2265167
1518195725783.00 ,4.1351776,-7.8551483,-1.8549347
1518195725983.00 ,0.94548035,-9.797531,-1.3264923
1518195726185.00 ,3.4305878,-8.171738,0.9110565
1518195726386.00 ,3.6662445,-9.390488,0.18980408
1518195726587.00 ,4.3327484,-9.102463,-0.22200012
1518195726789.00 ,3.7352753,-9.071518,0.5278168
1518195726990.00 ,2.6093597,-10.642563,-1.1194
1518195727192.00 ,2.5641327,-8.56926,-1.6502228
1518195727393.00 ,3.554367,-7.064865,-5.2517242
1518195727595.00 ,1.809555,-12.039841,-3.6521149
1518195727798.00 ,4.2875214,-9.635666,-0.21009827
1518195727999.00 ,3.0687714,-7.9384613,-1.3812408
1518195728200.00 ,4.2042084,-8.690659,-6.26E-04
1518195728400.00 ,5.075424,-10.335495,0.4849701
1518195728602.00 ,5.5395966,-11.270981,-1.0408478
1518195728805.00 ,3.5567474,-7.712326,-1.478836
1518195729006.00 ,3.9209442,-8.212204,-2.7975616
1518195729206.00 ,2.687912,-7.333847,-0.8408966
1518195729409.00 ,3.7638397,-9.219101,-2.3619537
1518195729609.00 ,4.4351044,-8.933456,-0.7242584
1518195729812.00 ,3.8209686,-9.826096,0.8943939
1518195730013.00 ,3.592453,-9.207199,-1.2479401
1518195730213.00 ,4.458908,-8.738266,-0.37434387
1518195730416.00 ,2.4832,-8.962021,-1.1074982
1518195730617.00 ,2.437973,-12.808701,-3.1189117
1518195730819.00 ,6.6155243,-9.181015,0.016036987
1518195731019.00 ,4.168503,-9.154831,-1.9215851
1518195731221.00 ,4.9944916,-8.752548,-1.4455109
1518195731423.00 ,4.6731415,-8.669235,-1.3336334
1518195731624.00 ,4.9040375,-8.795395,-0.8932648
1518195731826.00 ,4.7064667,-8.4145355,-1.2503204
1518195732028.00 ,4.7112274,-8.578781,-1.7430573
1518195732228.00 ,4.2494354,-8.833481,-0.9004059
1518195732429.00 ,4.8707123,-8.76207,-0.61476135
1518195732630.00 ,4.432724,-8.757309,-0.87898254
1518195732833.00 ,4.566025,-8.597824,-0.7694855
1518195733035.00 ,4.6207733,-8.733505,-0.76472473
1518195733236.00 ,4.675522,-8.56926,-0.7909088
1518195733438.00 ,4.927841,-8.602585,-0.8313751
1518195733639.00 ,4.777878,-8.519272,-0.6671295
1518195733840.00 ,4.9159393,-8.457382,-0.9337311
1518195734042.00 ,4.7040863,-8.521652,-0.7766266
1518195734243.00 ,4.7445526,-8.535934,-0.77900696
1518195734445.00 ,4.6993256,-8.614487,-0.81947327
1518195734646.00 ,4.7493134,-8.554977,-0.8670807
1518195734847.00 ,4.7040863,-8.716843,-0.7575836
1518195735049.00 ,4.6921844,-8.6644745,-0.6861725
1518195735250.00 ,4.7064667,-8.533554,-0.55763245
1518195735452.00 ,4.5969696,-8.652573,-0.5219269
1518195735653.00 ,6.2013397,-9.233383,-4.218643
1518195735855.00 ,4.739792,-8.693039,-0.3148346
1518195736056.00 ,4.7326508,-7.955124,0.2374115
1518195736257.00 ,4.8849945,-9.169113,0.22550964
1518195736459.00 ,4.285141,-8.783493,0.17552185
1518195736660.00 ,4.4351044,-8.966782,-0.24580383
1518195736862.00 ,4.696945,-8.6978,-0.117263794
1518195737062.00 ,3.5900726,-9.264328,-0.067276
1518195737264.00 ,3.168747,-9.057236,-0.74806213
1518195737465.00 ,3.5377045,-9.007248,-0.14344788
1518195737666.00 ,3.0711517,-9.319077,0.48020935
1518195737868.00 ,3.2806244,-9.250046,-0.02204895
1518195738069.00 ,5.503891,-8.978683,1.9846039
1518195738272.00 ,3.7162323,-9.226242,-0.3957672
1518195738473.00 ,3.8114471,-9.304794,-0.32911682
1518195738675.00 ,4.0256805,-8.897751,-0.25294495
1518195738876.00 ,3.7424164,-8.990585,-0.16725159
1518195739076.00 ,4.016159,-8.9596405,-0.16249084
1518195739278.00 ,3.9542694,-9.026291,-0.06965637
1518195739480.00 ,3.9828339,-8.89061,-0.095840454
1518195739682.00 ,3.9614105,-9.004868,-0.057754517
1518195739883.00 ,3.9875946,-8.921555,-0.057754517
1518195740083.00 ,4.0137787,-8.95488,-0.07203674
1518195740286.00 ,4.004257,-8.926315,-0.06251526
1518195740488.00 ,3.7424164,-9.183395,-0.46955872
1518195740689.00 ,3.9947357,-8.997726,-0.012527466
1518195740890.00 ,4.0375824,-8.947739,-0.18153381
1518195741091.00 ,4.068527,-9.185776,-0.20057678
1518195741293.00 ,3.9542694,-9.01915,-0.2815094
1518195741495.00 ,3.9733124,-8.931076,-0.09107971
1518195741696.00 ,4.0494843,-8.843002,-0.11250305
1518195741897.00 ,3.566269,-9.14769,-0.57429504
1518195742098.00 ,4.6207733,-7.1624603,-0.94325256
1518195742300.00 ,12.066574,-16.77678,-6.7608795
1518195742501.00 ,-2.7917023,7.567276,-2.5000153
1518195742702.00 ,14.66832,-28.859543,-8.222427
1518195742904.00 ,-4.905472,4.615616,-3.133194
1518195743105.00 ,21.699936,-23.337082,-0.7528229
1518195743308.00 ,-2.1656647,0.86891174,-0.18153381
1518195743509.00 ,8.453171,-20.844833,-10.567093
1518195743711.00 ,0.4717865,1.1712189,-1.2503204
1518195743911.00 ,17.29625,-27.833603,-8.555679
1518195744113.00 ,-6.5526886,3.3968658,3.1486053
1518195744315.00 ,8.498398,-31.004257,-12.123856
1518195744516.00 ,-4.9483185,5.984329,6.3882904
1518195744718.00 ,9.983749,-27.781235,-3.863968
1518195744918.00 ,-0.6707916,5.493973,3.4461517
1518195745119.00 ,14.296982,-34.215378,-10.005325
1518195745322.00 ,-6.357498,1.3664093,5.140976
1518195745524.00 ,6.196579,-33.479843,-0.99086
1518195745725.00 ,-0.9469147,4.115738,2.5963593
1518195745925.00 ,3.1211395,-27.666977,5.6194305
1518195746128.00 ,-3.001175,4.5037384,4.59111
1518195746329.00 ,5.0444794,-17.48375,-15.868179
1518195746531.00 ,-2.2537384,2.0852814,3.8365326
1518195746732.00 ,4.754074,-7.2267303,-2.2215118
1518195746933.00 ,1.7048187,1.3211823,3.1319427
1518195747135.00 ,3.5139008,-4.2012787,-2.0453644
1518195747337.00 ,1.1644745,-6.960129,-2.5809479
1518195747538.00 ,2.1570892,-1.2448578,-0.5124054
1518195747739.00 ,5.5586395,-9.611862,-4.844681
1518195747940.00 ,2.4141693,-1.9280243,-1.3574371
1518195748141.00 ,7.979477,-13.213364,-4.7589874
1518195748343.00 ,0.08140564,-0.10227966,-0.9170685
1518195748545.00 ,5.977585,-17.907455,-8.541397
1518195748747.00 ,0.5289154,0.42616272,-3.114151
1518195748948.00 ,14.106552,-21.735092,-4.6709137
1518195749148.00 ,-2.096634,1.9900665,-0.76234436
1518195749351.00 ,7.8604584,-26.007858,-6.9417877
1518195749552.00 ,-6.824051,4.2942657,-2.1501007
1518195749754.00 ,4.0518646,-27.800278,-1.9430084
1518195749954.00 ,-0.023330688,2.4375763,3.312851
1518195750156.00 ,3.2639618,-17.559921,-9.288834
1518195750357.00 ,2.2951508,-2.1303558,1.7537079
1518195750558.00 ,2.35466,-6.2460175,-0.41004944
1518195750760.00 ,2.0166473,-3.7442474,-0.9313507
1518195750962.00 ,3.9423676,-1.8351898,-1.5669098
1518195751163.00 ,7.172531,-14.272629,-4.639969
1518195751364.00 ,1.949997,0.62849426,-5.944412
1518195751565.00 ,10.071823,-21.944565,-4.1424713
1518195751768.00 ,-6.8454742,3.5039825,1.022934
1518195751968.00 ,5.8419037,-28.9738,-5.6635284
1518195752171.00 ,-1.4824982,2.6803741,-1.2955475
1518195752371.00 ,-3.084488,-17.221909,-1.5788116
1518195752572.00 ,3.2020721,-5.3224335,-3.0284576
1518195752775.00 ,7.4843597,-10.728256,-2.1667633
1518195752977.00 ,3.7043304,-9.035812,-1.8477936
1518195753177.00 ,4.6660004,-8.331223,-1.7597198
1518195753378.00 ,4.3256073,-8.495468,-1.478836
1518195753580.00 ,4.323227,-8.5168915,-0.83851624
1518195753783.00 ,5.518173,-8.033676,-1.4859772
1518195753984.00 ,4.6207733,-8.1193695,-1.4431305
1518195754184.00 ,4.8350067,-8.374069,-1.5954742
1518195754385.00 ,5.451523,-7.9146576,-0.8266144
1518195754586.00 ,4.9421234,-8.3502655,-1.286026
1518195754788.00 ,4.8469086,-8.359787,-1.3574371
1518195754991.00 ,5.23967,-8.105087,-2.2619781
1518195755192.00 ,4.9635468,-8.485947,-1.2098541
1518195755393.00 ,4.4279633,-8.471664,-1.6359406
1518195755594.00 ,4.47081,-8.678757,-1.3193512
1518195755796.00 ,4.696945,-8.600204,-1.2384186
1518195755998.00 ,4.6660004,-8.566879,-0.9575348
1518195756200.00 ,4.508896,-8.6978,-0.96229553
1518195756400.00 ,4.542221,-8.688278,-1.074173
1518195756603.00 ,4.5636444,-8.535934,-1.1765289
1518195756804.00 ,4.5707855,-8.602585,-1.240799
1518195757005.00 ,4.644577,-8.626389,-1.0789337
1518195757207.00 ,4.5565033,-8.616867,-1.093216
1518195757407.00 ,4.5826874,-8.5811615,-1.0479889
1518195757610.00 ,4.554123,-8.588303,-1.1765289
1518195757812.00 ,4.5755463,-8.528793,-1.1622467
1518195758013.00 ,4.5898285,-8.562119,-1.1789093
1518195758213.00 ,4.606491,-8.595444,-1.1051178
1518195758414.00 ,4.5565033,-8.628769,-1.157486
1518195758615.00 ,4.644577,-8.609726,-1.1027374
1518195758817.00 ,4.689804,-8.612106,-1.1241608
1518195759019.00 ,4.6469574,-8.524033,-1.1693878
1518195759220.00 ,4.7493134,-8.602585,-0.9670563
1518195759421.00 ,4.79216,-8.493088,-1.1074982
1518195759624.00 ,4.6469574,-8.607346,-1.0218048
1518195759824.00 ,4.618393,-8.609726,-1.1622467
1518195760026.00 ,4.7326508,-8.562119,-1.0337067
1518195760228.00 ,4.720749,-8.557358,-0.99086
1518195760428.00 ,4.7445526,-8.554977,-1.0170441
1518195760631.00 ,4.7112274,-8.550217,-1.0860748
1518195760833.00 ,4.7183685,-8.57164,-0.99086
1518195761035.00 ,4.6874237,-8.562119,-0.9551544
1518195761236.00 ,4.708847,-8.478806,-1.0051422
1518195761437.00 ,4.713608,-8.595444,-1.2146149
1518195761638.00 ,4.7421722,-8.50499,-1.1027374
1518195761839.00 ,4.844528,-8.500229,-1.0408478
1518195762041.00 ,4.8016815,-8.533554,-1.1408234
1518195762243.00 ,4.9040375,-8.500229,-1.0670319
1518195762444.00 ,4.780258,-8.483566,-1.0622711
1518195762646.00 ,4.8659515,-8.514511,-1.0408478
1518195762846.00 ,4.7374115,-8.469284,-1.1289215
1518195763047.00 ,4.777878,-8.531174,-1.1170197
1518195763250.00 ,4.837387,-8.535934,-1.036087
1518195763451.00 ,4.796921,-8.550217,-1.0908356
1518195763652.00 ,4.830246,-8.540695,-1.1027374
1518195763853.00 ,4.735031,-8.493088,-0.8908844
1518195764055.00 ,4.796921,-8.652573,-0.9384918
1518195764257.00 ,4.825485,-8.31218,-0.81233215
1518195764457.00 ,5.075424,-8.564499,-0.6837921
1518195764659.00 ,5.389633,-8.402634,-0.53144836
1518195764861.00 ,5.0897064,-8.412155,-0.29341125
1518195765062.00 ,5.0635223,-8.526413,-0.44813538
1518195765264.00 ,4.944504,-8.550217,-0.32435608
1518195765465.00 ,4.594589,-8.619247,-0.6004791
1518195765667.00 ,3.490097,-8.885849,-1.4193268
1518195765867.00 ,4.4565277,-8.281235,-0.20295715
1518195766069.00 ,4.875473,-8.588303,-0.35292053
1518195766272.00 ,4.701706,-8.643051,-0.33625793
1518195766472.00 ,4.6874237,-8.688278,-0.1410675
1518195766674.00 ,4.811203,-8.654953,-0.18391418
1518195766874.00 ,4.761215,-8.538315,-0.3957672
1518195767075.00 ,3.599594,-7.636154,1.1395721
1518195767279.00 ,9.833786,-21.91124,-0.2243805
1518195767480.00 ,-2.770279,1.7258453,-3.6568756
1518195767682.00 ,8.867355,-9.7285,-10.993179
1518195767883.00 ,-2.3203888,1.7520294,1.715622
1518195768084.00 ,9.521957,-13.729904,-5.525467
1518195768286.00 ,0.6384125,-0.21891785,-0.23390198
1518195768487.00 ,3.5186615,-7.9646454,-4.6423492
1518195768689.00 ,-4.515091,-3.901352,2.2654877
1518195768889.00 ,0.86216736,-10.487839,1.2109833
1518195769090.00 ,-3.5177155,-9.776108,-8.831802
1518195769292.00 ,3.437729,-3.6442719,-0.50050354
1518195769494.00 ,-0.5922394,-17.245712,2.6296844
1518195769696.00 ,5.2444305,0.009597778,4.314987
1518195769897.00 ,-1.6205597,-27.56224,-13.544937
1518195770097.00 ,2.5070038,-0.061813354,0.9277191
1518195770300.00 ,1.1787567,-33.675034,-8.30574
1518195770502.00 ,-0.06617737,6.900772,-7.494034
1518195770703.00 ,4.3517914,-6.415024,-13.36879
1518195770903.00 ,-5.0268707,2.6446686,-3.049881
1518195771106.00 ,2.4094086,-16.745834,-3.3593292
1518195771307.00 ,0.87882996,0.12861633,0.10411072
1518195771509.00 ,3.471054,-12.918198,-5.9467926
1518195771710.00 ,-4.6840973,1.0069733,-0.2243805
1518195771910.00 ,4.4089203,-13.975082,-2.228653
1518195772113.00 ,0.043319702,-2.1993866,-1.7073517
1518195772314.00 ,4.0113983,-6.3031464,-3.2141266
1518195772515.00 ,-5.8647614,-7.531418,-4.916092
1518195772716.00 ,-0.6398468,-11.418564,-1.1670074
1518195772917.00 ,3.361557,-13.608505,-11.985794
1518195773119.00 ,5.030197,-4.1631927,0.9110565
1518195773322.00 ,-1.6134186,-7.6718597,-9.00795
1518195773522.00 ,2.668869,-10.973434,-1.8882599
1518195773724.00 ,0.84788513,-6.5221405,-4.7351837
1518195773925.00 ,5.813339,-5.010605,-1.8811188
1518195774126.00 ,0.1837616,-6.141281,-5.9087067
1518195774328.00 ,1.2977753,-9.721359,-1.5526276
1518195774529.00 ,7.0654144,-9.152451,-3.659256
1518195774731.00 ,4.7873993,-8.493088,-0.82185364
1518195774932.00 ,5.1301727,-8.157455,-1.9644318
1518195775135.00 ,5.2325287,-8.338364,-1.6335602
1518195775336.00 ,5.3134613,-8.5811615,-1.0622711
1518195775537.00 ,5.0397186,-8.012253,-1.1408234
1518195775738.00 ,4.739792,-8.56926,-1.1479645
1518195775939.00 ,5.1111298,-8.271713,-1.1479645
1518195776140.00 ,5.092087,-8.2026825,-1.3407745
1518195776342.00 ,5.220627,-8.238388,-1.4264679
1518195776545.00 ,5.2896576,-8.05986,-1.7002106
1518195776745.00 ,5.3967743,-8.12175,-1.6264191
1518195776947.00 ,5.330124,-8.126511,-1.6145172
1518195777149.00 ,5.163498,-8.271713,-1.4859772
1518195777350.00 ,5.3920135,-8.028915,-1.5335846
1518195777551.00 ,5.287277,-8.207443,-1.3764801
1518195777753.00 ,5.287277,-8.255051,-1.3526764
1518195777955.00 ,5.1944427,-8.140793,-1.4740753
1518195778155.00 ,5.3134613,-8.102707,-1.4835968
1518195778357.00 ,5.4158173,-8.143173,-1.4431305
1518195778559.00 ,5.401535,-8.097946,-1.5383453
1518195778759.00 ,5.3920135,-8.071762,-1.4812164
1518195778961.00 ,5.3158417,-8.171738,-1.6240387
1518195779163.00 ,5.382492,-8.155075,-1.619278
1518195779364.00 ,5.406296,-8.116989,-1.4693146
1518195779565.00 ,5.4181976,-8.052719,-1.600235
1518195779766.00 ,5.3920135,-8.078903,-1.4669342
1518195779968.00 ,5.30632,-8.2026825,-1.4050446
1518195780171.00 ,5.3848724,-8.097946,-1.478836
1518195780371.00 ,5.3087006,-8.086044,-1.4669342
1518195780572.00 ,5.3515472,-8.12175,-1.433609
1518195780773.00 ,5.3801117,-8.097946,-1.4740753
1518195780976.00 ,5.3610687,-8.112228,-1.4026642
1518195781178.00 ,5.272995,-8.067001,-1.5145416
1518195781378.00 ,5.330124,-8.197922,-1.4740753
1518195781579.00 ,5.2753754,-8.109848,-1.4359894
1518195781782.00 ,5.3325043,-8.140793,-1.5097809
1518195781983.00 ,5.420578,-8.164597,-1.4431305
1518195782185.00 ,5.3777313,-8.086044,-1.497879
1518195782386.00 ,5.3920135,-8.040817,-1.4288483
1518195782586.00 ,5.4372406,-8.171738,-1.5526276
1518195782789.00 ,5.37059,-8.064621,-1.5026398
1518195782990.00 ,5.4562836,-8.112228,-1.5264435
1518195783191.00 ,5.3967743,-8.145554,-1.4264679
1518195783392.00 ,5.458664,-8.12175,-1.4954987
1518195783593.00 ,5.325363,-8.131271,-1.4407501
1518195783796.00 ,5.3658295,-8.145554,-1.4431305
1518195783996.00 ,5.337265,-8.140793,-1.5026398
1518195784197.00 ,5.394394,-8.05986,-1.4502716
1518195784399.00 ,5.349167,-8.155075,-1.562149
1518195784600.00 ,5.2753754,-8.197922,-1.4740753
1518195784802.00 ,5.337265,-8.288376,-1.8930206
1518195785003.00 ,5.7514496,-7.73851,-4.468582
1518195785205.00 ,5.1087494,-6.6435394,-3.6616364
1518195785406.00 ,5.772873,-8.57164,-4.0020294
1518195785609.00 ,3.970932,-9.419052,0.6992035
1518195785809.00 ,5.413437,-8.397873,-0.9313507
1518195786012.00 ,4.9373627,-8.628769,-0.1410675
1518195786213.00 ,5.0587616,-9.123886,-0.04109192
1518195786415.00 ,6.877365,-8.278854,-1.3931427
1518195786615.00 ,4.7897797,-7.450485,-2.2072296
1518195786817.00 ,3.861435,-7.859909,-2.4071808
1518195787019.00 ,4.927841,-7.1172333,-4.416214
1518195787219.00 ,5.6229095,-8.324081,1.4442596
1518195787421.00 ,5.04924,-7.912277,-0.90992737
1518195787623.00 ,5.620529,-7.912277,-1.8977814
1518195787825.00 ,5.7395477,-8.212204,-0.45051575
1518195788026.00 ,4.5707855,-10.2617035,-1.0479889
1518195788228.00 ,5.6086273,-7.6242523,-2.183426
1518195788429.00 ,5.3206024,-5.510483,-4.3233795
1518195788630.00 ,4.1542206,-8.524033,-5.127945
1518195788832.00 ,3.5424652,-7.2267303,-1.4812164
1518195789032.00 ,5.8657074,-8.1193695,-1.6168976
1518195789233.00 ,8.274643,-6.179367,-2.0763092
1518195789435.00 ,6.477463,-7.526657,-0.007766724
1518195789636.00 ,5.027817,-9.926071,-0.055374146
1518195789838.00 ,8.069931,-9.602341,-0.3219757
1518195790040.00 ,5.080185,-7.6242523,-1.8263702
1518195790241.00 ,4.8540497,-8.074142,-1.9739532
1518195790442.00 ,4.4565277,-8.017014,-1.2765045
1518195790645.00 ,4.34227,-7.595688,-1.1503448
1518195790846.00 ,3.963791,-8.89061,-1.9287262
1518195791048.00 ,4.08519,-9.095322,-2.4000397
1518195791249.00 ,4.2637177,-8.455002,-0.64808655
1518195791451.00 ,7.074936,-8.524033,-0.6433258
1518195791652.00 ,1.5619965,-11.1353,-1.4455109
1518195791853.00 ,1.7786102,-7.493332,-4.1424713
1518195792055.00 ,3.304428,-6.345993,-3.3141022
1518195792256.00 ,3.2687225,-7.7908783,-4.7280426
1518195792457.00 ,4.989731,-7.974167,-0.095840454
1518195792659.00 ,4.6207733,-8.650192,-1.9882355
1518195792861.00 ,4.7945404,-8.44548,-0.94563293
1518195793061.00 ,5.4158173,-8.538315,-0.4790802
1518195793263.00 ,2.9711761,-8.821579,-0.76234436
1518195793464.00 ,4.1851654,-8.236008,-2.0334625
1518195793665.00 ,5.2825165,-7.821823,-2.8404083
1518195793868.00 ,4.3851166,-7.3695526,-1.6978302
1518195794068.00 ,5.715744,-7.6885223,-1.4693146
1518195794271.00 ,4.4351044,-9.202438,-2.1572418
1518195794471.00 ,5.3801117,-8.743027,-0.92897034
1518195794674.00 ,5.2301483,-8.640671,-0.3481598
1518195794874.00 ,4.796921,-8.552597,-1.4883575
1518195795075.00 ,4.1542206,-8.221725,-1.766861
1518195795277.00 ,3.785263,-8.243149,-5.5302277
1518195795478.00 ,4.7826385,-7.155319,-3.7663727
1518195795680.00 ,5.073044,-7.9646454,-3.4950104
1518195795882.00 ,5.0135345,-8.447861,-2.59523
1518195796083.00 ,4.708847,-8.017014,-2.1215363
1518195796285.00 ,4.882614,-7.99321,-2.4952545
1518195796485.00 ,4.7754974,-8.05748,-2.6547394
1518195796688.00 ,5.0016327,-8.12175,-2.6475983
1518195796889.00 ,4.989731,-8.002731,-2.5166779
1518195797090.00 ,4.996872,-8.074142,-2.561905
1518195797292.00 ,4.9825897,-8.107468,-2.5381012
1518195797493.00 ,4.8921356,-8.109848,-2.5071564
1518195797695.00 ,4.868332,-8.052719,-2.5928497
1518195797897.00 ,4.882614,-7.99559,-2.5071564
1518195798097.00 ,4.8469086,-8.081284,-2.607132
1518195798299.00 ,4.951645,-7.99559,-2.5547638
1518195798500.00 ,4.880234,-8.009872,-2.440506
1518195798702.00 ,4.946884,-8.012253,-2.6237946
1518195798903.00 ,5.004013,-7.9027557,-2.5761871
1518195799104.00 ,5.0706635,-7.9717865,-2.5833282
1518195799305.00 ,5.061142,-7.943222,-2.6428375
1518195799508.00 ,5.027817,-7.9765472,-2.607132
1518195799710.00 ,5.0444794,-7.974167,-2.6118927
1518195799910.00 ,5.0968475,-8.000351,-2.4881134
1518195800111.00 ,5.1039886,-7.9789276,-2.5000153
1518195800312.00 ,4.992111,-7.8884735,-2.6475983
1518195800514.00 ,5.0635223,-8.005112,-2.5857086
1518195800716.00 ,5.1230316,-7.950363,-2.5761871
1518195800917.00 ,5.0897064,-7.9265594,-2.6547394
1518195801118.00 ,5.0468597,-7.897995,-2.5809479
1518195801321.00 ,5.0587616,-7.9646454,-2.6047516
1518195801522.00 ,5.0135345,-7.9646454,-2.497635
1518195801724.00 ,4.9992523,-7.936081,-2.5285797
1518195801924.00 ,4.973068,-8.009872,-2.5857086
1518195802126.00 ,5.0659027,-8.012253,-2.5928497
1518195802327.00 ,4.98497,-7.9908295,-2.6047516
1518195802530.00 ,5.0825653,-7.9860687,-2.588089
1518195802730.00 ,5.056381,-7.9836884,-2.6571198
1518195802931.00 ,5.099228,-7.924179,-2.561905
1518195803134.00 ,5.1087494,-7.886093,-2.5785675
1518195803335.00 ,5.0016327,-7.9575043,-2.542862
1518195803537.00 ,5.220627,-7.9027557,-2.5857086
1518195803738.00 ,5.056381,-7.9575043,-2.5547638
1518195803938.00 ,5.1016083,-8.033676,-2.53096
1518195804141.00 ,5.027817,-8.009872,-2.59523
1518195804343.00 ,5.054001,-7.9384613,-2.485733
1518195804543.00 ,5.011154,-7.8956146,-2.5857086
1518195804745.00 ,5.0897064,-7.9646454,-2.5142975
1518195804947.00 ,5.0587616,-7.936081,-2.5595245
1518195805148.00 ,5.0897064,-7.8884735,-2.4619293
1518195805350.00 ,4.965927,-8.040817,-2.3429108
1518195805550.00 ,4.7873993,-8.040817,-2.2500763
1518195805752.00 ,4.0566254,-8.25029,-2.947525
1518195805953.00 ,3.6210175,-19.766525,-2.8285065
1518195806154.00 ,2.411789,1.9781647,4.100754
1518195806357.00 ,23.83751,-31.21135,-8.553299
1518195806557.00 ,-0.99690247,2.987442,3.581833
1518195806759.00 ,16.101303,-37.197983,-10.555191
1518195806961.00 ,0.4717865,2.082901,4.5982513
1518195807163.00 ,13.601913,-30.56865,-12.130997
1518195807363.00 ,-0.24946594,2.58992,3.2961884
1518195807564.00 ,10.75737,-31.577927,-15.249283
1518195807767.00 ,1.8833466,1.6687164,2.2059784
1518195807967.00 ,5.8609467,-19.997421,6.540634
1518195808168.00 ,4.3851166,0.24763489,1.4561615
1518195808370.00 ,-1.1659088,-16.174545,-6.353836
1518195808571.00 ,3.1425629,-0.8259125,1.632309
1518195808774.00 ,5.9371185,-11.966049,-6.346695
1518195808974.00 ,5.7776337,-1.6233368,0.25169373
1518195809175.00 ,2.8831024,-7.905136,-6.5442657
1518195809377.00 ,6.5988617,-2.6873627,-0.86946106
1518195809578.00 ,4.1089935,-1.2615204,-12.352371
1518195809782.00 ,7.215378,-4.0727386,-1.7597198
1518195809983.00 ,1.5738983,-3.946579,1.363327
1518195810184.00 ,4.0113983,-9.109604,-2.8618317
1518195810384.00 ,3.932846,-2.5278778,-1.4098053
1518195810585.00 ,3.906662,-10.906784,-5.6754303
1518195810787.00 ,2.514145,-2.1303558,-7.772537
1518195810989.00 ,4.5374603,-16.003159,-2.2262726
1518195811190.00 ,1.4572601,6.8960114,2.5582733
1518195811393.00 ,1.4905853,-21.65178,-2.9427643
1518195811595.00 ,1.8881073,6.772232,2.9486542
1518195811796.00 ,11.285812,-29.602219,-2.6737823
1518195811997.00 ,-1.4182281,3.9205475,3.8817596
1518195812198.00 ,-2.8393097,-38.84163,-5.7039948
1518195812399.00 ,-3.9985504,1.3235626,4.300705
1518195812601.00 ,-6.30513,-32.2968,-8.684219
1518195812803.00 ,0.609848,0.9069977,2.877243
1518195813004.00 ,1.385849,-10.68541,-6.7108917
1518195813206.00 ,2.5879364,-0.25224304,3.569931
1518195813408.00 ,-0.05189514,-4.189377,-2.6499786
1518195813609.00 ,0.0766449,-6.51976,-3.0784454
1518195813809.00 ,-2.251358,-0.0499115,-2.8951569
1518195814011.00 ,2.6355438,-7.795639,-0.44099426
1518195814213.00 ,-1.2944489,2.7708282,1.6608734
1518195814413.00 ,-2.1632843,-13.648972,0.13981628
1518195814615.00 ,-0.18995667,5.303543,-0.9884796
1518195814817.00 ,-4.5174713,-18.166916,-2.985611
1518195815017.00 ,-1.4348907,5.4225616,1.7465668
1518195815219.00 ,3.1068573,-24.422531,-2.1310577
1518195815421.00 ,-2.989273,5.310684,-0.2577057
1518195815623.00 ,4.568405,-37.6931,-13.735367
1518195815824.00 ,-5.9361725,3.0160065,2.7844086
1518195816025.00 ,-8.242752,-22.891953,2.6701508
1518195816226.00 ,5.5253143,0.13575745,1.44664
1518195816428.00 ,5.6490936,-16.126938,-24.249466
1518195816630.00 ,1.9928436,-1.9208832,1.779892
1518195816831.00 ,0.95500183,-5.722336,0.30882263
1518195817033.00 ,-2.058548,-7.507614,-0.68855286
1518195817234.00 ,-1.6895905,-11.132919,-1.997757
1518195817435.00 ,3.0901947,-9.369064,-1.2169952
1518195817637.00 ,-2.1204376,-9.08342,-1.8097076
1518195817837.00 ,0.26945496,-9.59996,0.22312927
1518195818040.00 ,2.0095062,-6.462631,1.0300751
1518195818240.00 ,4.6731415,-8.962021,-2.1024933
1518195818443.00 ,4.368454,-7.326706,-0.7861481
1518195818644.00 ,6.4488983,-11.211472,2.92247
1518195818846.00 ,10.652634,-6.5935516,9.554184
1518195819047.00 ,0.17424011,-3.2253265,7.899826
1518195819248.00 ,2.1213837,0.12385559,7.5760956
1518195819450.00 ,1.3191986,1.454483,9.116196
1518195819652.00 ,1.7714691,1.3973541,10.49205
1518195819852.00 ,1.3739471,1.8877106,9.799362
1518195820053.00 ,2.8831024,2.4899445,8.444931
1518195820254.00 ,2.22612,0.7570343,9.439926
1518195820456.00 ,-4.0937653,5.4082794,9.3780365
1518195820658.00 ,-0.4827423,2.0043488,9.192368
1518195820859.00 ,0.23374939,3.339737,10.527756
1518195821060.00 ,-0.92311096,4.463272,7.9022064
1518195821262.00 ,-0.09950256,2.9731598,10.261154
1518195821463.00 ,0.5027313,2.8493805,9.91124
