Time,AccelX,AccelY,AccelZ
1518198853102.0,3.082339462333333,1.6933929699999997,6.924429391333332
1518198853304.0,2.780111692333333,1.2035919366666663,6.536111514666666
1518198853506.0,2.761624143666666,0.6895904699999995,6.088205014666666
1518198853707.0,2.8610443069999993,0.2886566366666665,5.751779227999999
1518198853908.0,2.943087763666666,-0.1205291633333338,5.332040454666665
1518198854110.0,3.035128780333333,-0.22137755333333345,4.950705001333333
1518198854311.0,3.0555999736666664,-0.9569915533333335,4.781857334666666
1518198854512.0,2.9744293203333325,-1.1356780799999997,4.501608306
1518198854714.0,3.046871950333333,-1.519155866666667,3.980545072666666
1518198854915.0,2.853268433666666,-1.550418076666667,3.8799347159999984
1518198855116.0,2.992520143666666,-2.535098243333334,3.5116913026666663
1518198855318.0,2.8218475403333323,-2.6453887733333334,3.2381866593333335
1518198855519.0,2.8964325036666656,-3.100912473333333,2.6533294759999997
1518198855721.0,2.510971066999999,-3.209378053333333,2.833047476
1518198855922.0,2.6028533903333324,-4.0379852199999995,2.526058945333333
1518198856123.0,2.404171753666666,-4.322518913333332,2.1326629453333332
1518198856325.0,2.526364135666666,-4.627682486666666,1.555343612
1518198856526.0,2.298165892333333,-4.674972529999999,1.5023406786666667
1518198856728.0,2.466220092333333,-5.668222049999999,0.9904815353333332
1518198856929.0,2.630862423666666,-5.630294809999999,0.5440032686666665
1518198857131.0,3.1712066346666665,-6.283865376666666,-0.37608949800000024
1518198857332.0,3.3621917446666663,-6.500875876666667,-0.7389373980000001
1518198857534.0,2.929598984666667,-7.042172256666667,-1.7795562979999997
1518198857735.0,2.8140716379999997,-7.515152,-2.135818498
1518198857937.0,2.408615104666666,-7.488095113333332,-2.288479631333333
1518198858138.0,2.1144805846666666,-7.681063863333334,-2.668942269333333
1518198858339.0,1.6984710579999998,-7.326626606666666,-2.468673712666666
1518198858542.0,1.6881561180000002,-7.842214973333332,-2.6313323993333326
1518198858743.0,1.3661712586666666,-7.633932503333333,-2.5888031026666662
1518198858944.0,1.3974334586666668,-7.343209849999999,-2.715121456
1518198859145.0,1.5559661919999999,-6.926803583333333,-3.0332977293333334
1518198859347.0,2.6039642253333333,-7.443820183333334,-2.964187621666667
1518198859548.0,2.6683135906666666,-7.12072448,-2.818191527333334
1518198859751.0,2.385128780666667,-7.325674446666667,-2.9030120840000007
1518198859953.0,2.3467254606666668,-7.4266815133333335,-2.8993621840000006
1518198860154.0,1.332608040666667,-7.728274533333334,-2.5642852806666676
1518198860355.0,1.2791290351000002,-7.508486966666668,-2.7574127173333345
1518198860557.0,1.144796751766667,-7.7649322733333355,-2.956729122000001
1518198860758.0,1.1883575384333336,-7.9271942200000005,-2.8962677020000007
1518198860959.0,1.3269744831000003,-7.868161010000001,-2.979342652000001
1518198861160.0,1.1913726764333334,-7.751364143333335,-3.061941528666668
1518198861362.0,1.1904998764333339,-7.705661020000001,-2.9478424086666672
1518198861564.0,1.1281341531000006,-7.5834686200000005,-2.981405625333334
1518198861765.0,1.4152862631000003,-7.490316763333334,-3.191909758666667
1518198861966.0,1.694662469766667,-7.633932496666667,-3.4926299613333334
1518198862167.0,1.9838775531000004,-7.352096560000001,-3.3423492013333336
1518198862369.0,2.1528045431000002,-7.6944732700000005,-3.4262176013333328
1518198862571.0,2.3875091330999996,-7.955282593333333,-3.6556853713333335
1518198862772.0,2.1144012231,-7.4116058266666665,-3.639657541333333
1518198862973.0,1.9499969287666663,-7.872128293333333,-3.4925506008666662
1518198863175.0,1.4590850921,-7.697329693333332,-2.9114226621999997
1518198863376.0,1.2500885070999999,-7.92402037,-2.8796843822000002
1518198863577.0,1.6494354204333332,-7.8084930366666665,-2.2384124188666665
1518198863779.0,1.6084136937666667,-7.7019317366666655,-2.0712310255333337
1518198863981.0,1.8474029464333332,-7.92719419,-1.9987090495333335
1518198864183.0,1.6948211607666663,-7.873794539999999,-1.6743438228666667
1518198864385.0,1.828677362433333,-8.298135349999999,-1.9078582282
1518198864585.0,1.6111114424333333,-7.773422216666667,-1.7298858215333333
1518198864787.0,1.6545928884333334,-8.114132673333332,-1.7463103815333332
1518198864987.0,1.1931182884333336,-8.35145566,-1.5911101915333332
1518198865189.0,0.8892242317666667,-8.806027193333332,-1.3493438315333335
1518198865391.0,0.1503570451,-8.276632660000002,-1.3672759602
1518198865593.0,0.10592345176666657,-8.567196630000002,-1.3936187345333333
1518198865794.0,0.29206846843333306,-8.441909763333333,-1.3037993978666667
1518198865995.0,0.2597747684333331,-8.405172696666668,-1.2182647288666666
1518198866197.0,1.1903411617666664,-8.477615320000002,-1.5010528155333334
1518198866398.0,1.2366790539999997,-8.440719553333336,-1.469393878866667
1518198866600.0,1.480508407333333,-8.478646820000002,-1.3192718102
1518198866800.0,1.3763275006666664,-8.405569453333335,-1.1958098945333335
1518198867002.0,1.4360748159999996,-8.90830382,-1.3518035478666668
1518198867203.0,1.4490875093333329,-8.514907820000001,-1.2437347012000002
1518198867405.0,1.6085723659999995,-8.925521846666665,-1.4172637535333334
1518198867606.0,1.6083343259999994,-9.065408313333332,-1.1265411135333332
1518198867808.0,1.7307647459999995,-9.524581889999999,-1.4382903868666668
1518198868010.0,1.368948356,-9.023831156666667,-1.1603424002
1518198868210.0,1.2682586593333331,-9.500698833333335,-1.242068473533333
1518198868411.0,0.9920562793333335,-9.320425400000001,-0.8951690668666668
1518198868612.0,0.9756317193333337,-9.48387755,-0.9366668702000001
1518198868815.0,1.0770355293333336,-9.501968383333333,-0.7816253655333332
1518198869017.0,1.127182013666667,-9.507681250000001,-0.8168548593333331
1518198869217.0,1.0914764470000005,-9.485067750000002,-0.8248687746666666
1518198869420.0,1.1185333320000004,-9.425082393333335,-0.8627166746666666
1518198869620.0,1.1238494920000002,-9.42365416,-0.8550994879999999
1518198869821.0,1.1397979786666668,-9.427383426666667,-0.8458953863333334
1518198870024.0,1.1671722459999998,-9.41913146,-0.8603363043333333
1518198870224.0,1.173043828333333,-9.42381286,-0.8639862076666667
1518198870427.0,1.2085113566666663,-9.422305293333332,-0.879855349
1518198870628.0,1.2156524699999998,-9.42214659333333,-0.873031619
1518198870829.0,1.2204132099999998,-9.423892193333332,-0.8466094996666667
1518198871031.0,1.2230316166666666,-9.425161726666666,-0.8218536396666667
1518198871232.0,1.2234283433333333,-9.43865049333333,-0.7948761003333334
1518198871434.0,1.2273162833333333,-9.436508159999999,-0.7739288350000001
1518198871634.0,1.2313629133333333,-9.435317959999997,-0.7582977306666666
1518198871835.0,1.2372344966666666,-9.430477859999998,-0.739334108
1518198872039.0,1.234695433333333,-9.435794026666667,-0.7243377703333334
1518198872239.0,1.2299346899999997,-9.439047193333334,-0.7130706803333333
1518198872441.0,1.22382507,-9.438888493333334,-0.6995819113333334
1518198872641.0,1.20129089,-9.444204626666666,-0.6855377216666666
1518198872843.0,1.1998626666666663,-9.449362093333333,-0.65713196
1518198873046.0,1.2196197466666665,-9.451345759999999,-0.6251556420000001
1518198873247.0,1.1987518279999996,-9.448727360000001,-0.6037323019999999
1518198873447.0,1.211050411333333,-9.453567426666668,-0.5893707296666666
1518198873648.0,1.1917694069999998,-9.47618096,-0.636026003
1518198873850.0,1.2372344969999998,-9.439285226666668,-0.7137054463333332
1518198874052.0,1.3061859103333329,-9.367318676666665,-0.8378814663333333
1518198874254.0,1.3567291236666663,-9.326931709999998,-0.9131805396666667
1518198874456.0,1.4467864969999995,-9.333676076666665,-0.9645172130000002
1518198874657.0,1.3744232156666667,-9.402468793333332,-0.8239166263333335
1518198874859.0,1.4473419156666667,-9.423892126666665,-0.7639312743333334
1518198875060.0,1.552633659,-9.416036926666665,-0.6918060276666668
1518198875260.0,1.6280120756666667,-9.381918259999997,-0.6983123760000001
1518198875462.0,1.6786346323333334,-9.482528616666665,-0.6253143293333333
1518198875664.0,1.5318450823333336,-9.606783983333331,-0.5044708226666667
1518198875866.0,1.5687408323333336,-9.543624796666666,-0.636898801
1518198876067.0,1.609603869,-9.446505663333333,-0.7631378156666666
1518198876269.0,1.5840545523333334,-9.396200463333333,-0.8896148723333334
1518198876470.0,1.7254485956666665,-9.338357453333334,-0.8560516393333335
1518198876671.0,1.668240344,-9.344784453333334,-0.8048736606666668
1518198876873.0,1.653402699,-9.342880153333333,-0.7696441683333334
1518198877074.0,1.7559173456666666,-9.337246619999998,-0.6736358683333333
1518198877275.0,1.749966419,-9.296780319999998,-0.6223785443333334
1518198877477.0,1.7238616823333333,-9.30773002,-0.5912750286666667
1518198877679.0,1.8808074823333332,-9.234652636666667,-0.634597783
1518198877880.0,1.9634857056666664,-9.175540093333334,-0.789480599
1518198878081.0,2.080361929,-9.200057926666666,-0.7210052556666667
1518198878283.0,2.182241812333333,-9.18045956,-0.7463165356666666
1518198878483.0,2.251827992333333,-9.141421493333334,-0.7221954420000001
1518198878686.0,2.404330432333333,-9.146896360000001,-0.700296028
1518198878887.0,2.387985219,-9.104684426666667,-0.717037972
1518198879088.0,2.414883412333334,-9.049935883333333,-0.7966217133333333
1518198879289.0,2.467568957666667,-8.955990569999997,-0.8680328433333333
1518198879490.0,2.554135117666667,-8.92647397,-1.0144256733333332
1518198879693.0,2.561990342,-8.745645113333333,-0.9456329479666667
1518198879895.0,2.4601104577666666,-8.765640213333333,-0.8274871949666667
1518198880096.0,2.3892547477666666,-8.864028896666667,-0.6085724049666665
1518198880297.0,2.470980814433333,-8.874661230000001,-0.49042665163333343
1518198880499.0,2.3989349144333336,-8.845938096666666,-0.4014801149666667
1518198880700.0,2.6383208991000004,-8.666458129999999,-0.6503082416333332
1518198880901.0,2.6967986891,-8.581002796666667,-0.8779510649666666
1518198881103.0,2.5398528932333337,-8.581558196666666,-1.1685943749666667
1518198881304.0,2.5445342899000005,-8.62226253,-1.0662384166333334
1518198881506.0,2.6723602199,-8.562991296666667,-1.1305877833
1518198881706.0,2.9094451799000005,-8.418978863333333,-1.2350067299666665
1518198881908.0,3.0606780899000006,-8.500784283333333,-1.0861541909666668
1518198882109.0,2.946499623233333,-8.629403683333333,-1.0102203509666667
1518198882311.0,3.0506805298999993,-8.612423716666665,-0.9244476409666667
1518198882513.0,3.022036733233333,-8.597586073333334,-0.9288116545333334
1518198882713.0,3.107650748233333,-8.63257754,-0.9475372405333333
1518198882914.0,3.152084343233333,-8.711367840000001,-0.9784820648666667
1518198883117.0,3.231826776566667,-8.677725273333333,-1.0156158548666667
1518198883318.0,3.3188690132333334,-8.706527773333335,-1.0490997415333334
1518198883520.0,3.4819244299000007,-8.651461873333334,-0.9989532582
1518198883721.0,3.465737906566667,-8.696768256666667,-0.9326202498666668
1518198883922.0,3.4161468399,-8.775399833333335,-0.7878936832000001
1518198884123.0,3.265945421233334,-8.715969900000003,-0.9572967598666667
1518198884325.0,3.2388885379000008,-8.563626133333335,-0.9973663398666668
1518198884526.0,3.068057241233334,-8.707241833333335,-1.2740448025333335
1518198884727.0,3.0456024079000006,-8.647970599999999,-1.2722198515333334
1518198884930.0,3.1568450812333344,-8.6437653,-1.2388153098666665
1518198885132.0,3.1937408312333337,-8.686929376666669,-1.1313812265333332
1518198885332.0,3.200009144566667,-8.772622723333333,-1.0419586215333332
1518198885534.0,3.2196868779,-8.781509456666667,-0.8990570025333333
1518198885735.0,3.317282094566667,-8.929885913333333,-0.8966766315666667
1518198885937.0,3.425668325466667,-8.93551948,-0.9405548045666666
1518198886139.0,3.4836700321333334,-8.895925963333333,-1.0535430879
1518198886341.0,3.4570098821333337,-8.900607363333332,-1.1001190165666663
1518198886542.0,3.5204864454666667,-8.908621296666666,-1.1444732632333328
1518198886742.0,3.4284454288000004,-9.007962096666667,-1.0311675975666665
1518198886945.0,3.373379505466667,-9.074929863333333,-0.8528778019000001
1518198887146.0,3.4847015280000004,-9.079452563333332,-0.6138091999
1518198887346.0,3.472085561333333,-9.059774829999999,-0.7054534882333333
1518198887547.0,3.395278921333333,-9.067153963333332,-0.6832366902333333
1518198887750.0,3.388455191333333,-9.079293863333334,-0.6704620322333334
1518198887952.0,3.286813348,-9.040969896666667,-0.6891082725666667
1518198888153.0,3.4451080246666663,-8.993679863333334,-0.6324554415666666
1518198888355.0,3.4450286813333326,-9.046127363333333,-0.5761199915666667
1518198888555.0,3.402737421333333,-9.10547795,-0.5900848353333334
1518198888756.0,3.448995964666666,-9.04890445,-0.6132537813333334
1518198888957.0,3.4881133946666667,-8.96646425,-0.6196807833333333
1518198889160.0,3.383773794666667,-8.993521116666667,-0.6795867883333333
1518198889362.0,3.3797271613333333,-8.982809433333333,-0.713070675
1518198889562.0,3.3148223779999997,-9.010818466666667,-0.8053497266666666
1518198889764.0,3.2514251613333327,-9.022006233333332,-0.8435150099999998
1518198889966.0,3.2886382979999995,-8.988998433333334,-0.8469268766666666
1518198890168.0,3.3965484533333328,-9.006216449999998,-0.7513153053333332
1518198890369.0,3.397579946666666,-9.163003549999999,-0.6918853719999999
1518198890570.0,3.5694427399999995,-9.041763316666668,-0.44028015200000004
1518198890772.0,3.513345326666666,-9.081356816666668,-0.4673370366666667
1518198890972.0,3.487557976666666,-9.113412483333335,-0.492410279
1518198891174.0,3.480337519999999,-9.114285283333334,-0.5325592049999999
1518198891376.0,3.505648796666666,-9.113412483333333,-0.5478729256666666
1518198891577.0,3.4817657433333324,-9.116506949999998,-0.5409698493333333
1518198891779.0,3.4665313699999993,-9.114364616666666,-0.5573150639999999
1518198891981.0,3.4698638899999996,-9.112301616666667,-0.5327178973333332
1518198892182.0,3.48263855,-9.117697133333333,-0.5035980233333333
1518198892383.0,3.4677215599999998,-9.123568699999998,-0.49510803299999995
1518198892585.0,3.4711334266666665,-9.121743733333332,-0.4833648696666667
1518198892786.0,3.4678802566666667,-9.124203466666666,-0.4714630143333333
1518198892986.0,3.4697845533333336,-9.121505733333333,-0.4736053483333333
1518198893189.0,3.467642216666667,-9.124362199999998,-0.47170105133333323
1518198893390.0,3.4685150200000003,-9.124124166666665,-0.4716217063333333
1518198893591.0,3.456613163333334,-9.130551166666665,-0.4731292743333333
1518198893793.0,3.447567753333334,-9.14078673333333,-0.4674163836666666
1518198893995.0,3.4421722433333337,-9.153243999999999,-0.45686340499999994
1518198894196.0,3.426699833333334,-9.157925366666666,-0.46003723266666663
1518198894398.0,3.432571413333334,-9.154989583333334,-0.49415588600000004
1518198894598.0,3.4211456300000007,-9.154513516666668,-0.5108184836666667
1518198894800.0,3.406784056666667,-9.16633605,-0.5291473403333332
1518198895001.0,3.395199583333334,-9.167446883333334,-0.5381134046666667
1518198895202.0,3.3509246800000003,-9.18125305,-0.531607057
1518198895405.0,3.2986358633333337,-8.906954954666666,-0.5527130136666667
1518198895605.0,3.5500824133333335,-9.260916121333333,-0.826058962
1518198895807.0,3.3990081966666668,-9.109445164666667,-0.8362152119999999
1518198896009.0,3.352670306666666,-8.866885351333336,-0.8164581313333333
1518198896209.0,3.3779022366666656,-9.448568701333336,-1.0304534926666666
1518198896412.0,3.117330946666666,-9.673513768000003,-1.3904449526666667
1518198896613.0,2.835653706666666,-9.251632674666668,-1.2686492993333334
1518198896814.0,2.830496239999999,-8.961941511333334,-1.2260406566666668
1518198897015.0,2.7240143046666656,-9.036605811333335,-1.6502227760000001
1518198897217.0,2.534695457999999,-8.858950771333335,-1.52326965
1518198897418.0,2.430911279666666,-8.622421238000001,-1.4540801976666666
1518198897619.0,2.067269922999999,-9.278372171333336,-1.8729461596666668
1518198897821.0,1.7386993563333326,-9.404055771333335,-2.2539642413333336
1518198898022.0,1.4916168363333329,-9.048745707999998,-2.140896614666667
1518198898223.0,1.407272353,-8.857998627999997,-2.0287811353333334
1518198898425.0,1.1730438363333333,-9.648202494666664,-2.092892463666667
1518198898626.0,1.002609266333333,-9.811813328,-2.465975950333333
1518198898828.0,0.6753082363333329,-9.498318453,-2.323074338
1518198899031.0,0.5589874346666663,-9.243063316333332,-2.2870513896666664
1518198899231.0,0.43401795399999976,-8.986935376333332,-2.3987701386666664
1518198899432.0,0.4075164873333331,-9.241079676333332,-2.6332366953333333
1518198899635.0,0.4529815739999998,-9.352243009666665,-2.878335572
1518198899835.0,0.3940277173333332,-8.927584823,-2.7686798106666664
1518198900037.0,0.20296326399999992,-8.756991556333332,-2.6714813246666664
1518198900238.0,0.3755401739999997,-9.048269656333332,-2.985293578
1518198900440.0,0.1928863673333332,-9.039938373,-2.9637908913333333
1518198900641.0,0.3007965273333332,-8.871408089666666,-2.945700071
1518198900842.0,0.18868105066666643,-8.761196889666666,-2.946255491
1518198901045.0,0.15353090399999964,-9.066122456333332,-3.345285035333333
1518198901247.0,0.33618472066666644,-9.138406389666667,-3.447720338
1518198901448.0,0.38474429066666643,-9.143008441666666,-3.3348114013333334
1518198901649.0,-0.15195006266666694,-8.607742331666666,-2.9690277079999996
1518198901849.0,0.11838074733333302,-9.191091955000001,-3.236819453
1518198902052.0,-0.09220274600000017,-9.200534095000002,-3.242532343666667
1518198902254.0,-0.07903135599999989,-8.286868323333335,-2.939828487
1518198902454.0,-0.022219832666666745,-8.14166569,-2.6476776036666663
1518198902655.0,0.22859192733333317,-8.913937416666668,-3.208413677
1518198902856.0,-0.07482603933333341,-8.890054360666667,-3.149935891666667
1518198903059.0,-0.07839659600000001,-8.443655430666666,-2.5976104583333335
1518198903261.0,0.16448060399999997,-9.118411304000002,-3.053134141666667
1518198903463.0,0.35118104233333336,-9.846487470666668,-3.3347320450000004
1518198903662.0,0.5910431026666668,-8.738028004,-2.894839471666667
1518198903865.0,0.8101959413333333,-8.383670097333333,-2.5420684616666667
1518198904067.0,1.1946258746666665,-8.810946694,-3.2258697183333345
1518198904268.0,1.2624664513333335,-8.854824873999998,-3.525479095000001
1518198904469.0,1.5170074746666666,-7.704550210666667,-3.3171172783333347
1518198904670.0,1.4555938979999998,-7.8319794106666665,-2.6808440950000003
1518198904872.0,1.7299713413333335,-8.516494785666666,-3.059878515
1518198905073.0,1.6680023463333336,-8.529269445666666,-3.099789403
1518198905274.0,1.718386867,-8.389621009,-2.8457244630000003
1518198905476.0,1.6329315458333329,-9.020022609,-3.2438811963333336
1518198905677.0,1.5613617224999996,-9.233462542333333,-3.2044463763333337
1518198905880.0,1.3639496124999997,-9.149118062333333,-3.2613372463333334
1518198906081.0,1.5063751524999998,-9.641061429,-4.243081626333334
1518198906282.0,1.2522308591666664,-9.471261629,-4.002902186333333
1518198906484.0,1.3583954091666663,-9.470864895666667,-3.9702117563333332
1518198906685.0,1.2411224558333327,-9.666610745666668,-3.9878265023333337
1518198906887.0,1.3140411558333327,-9.792373679,-3.9721953990000003
1518198907088.0,1.320944235833333,-9.496334845666667,-3.569912680666667
1518198907289.0,1.1643951558333332,-9.412069712333333,-3.475888022666667
1518198907490.0,1.1301178125,-9.697158822333332,-3.5649932493333334
1518198907692.0,1.3910858325,-9.88806458233333,-3.6663970593333337
1518198907894.0,1.2316009691666665,-9.465945415666667,-3.395114102666667
1518198908096.0,1.4976471091666668,-9.726278655666666,-3.427963222666667
1518198908297.0,1.4420257725000003,-10.067544527333332,-3.5338103893333335
1518198908497.0,1.6357879825000001,-9.983596793999999,-3.4817596093333334
1518198908700.0,1.6622101024999998,-9.632015993999998,-3.0555145013333336
1518198908901.0,1.9629303125,-9.942971813333333,-3.176278664666667
1518198909102.0,2.0775055045,-10.314071676666666,-3.3258453180000003
1518198909303.0,2.0210113578333333,-9.816018676666667,-3.013540629666667
1518198909504.0,1.9406341611666664,-9.323995976666668,-2.813668799666667
1518198909705.0,2.0794891441666663,-9.76761781,-2.850643897333334
1518198909906.0,2.1763702488333334,-9.993594383333335,-2.836361669333334
1518198910110.0,2.0517181488333334,-9.917025783333335,-2.2815765260000007
1518198910311.0,2.0859161454999997,-10.059133933333333,-2.111618029333333
1518198910511.0,2.0787750254999997,-10.414602696666668,-2.272372424
1518198910712.0,2.3194305455,-10.123959396666667,-2.547940050666667
1518198910915.0,2.3902862588333336,-9.746829263333334,-2.3324371256666665
1518198911116.0,2.581192022166667,-9.981375173333335,-2.335452262333333
1518198911318.0,2.6633148255,-10.371914716666668,-2.4921600256666667
1518198911518.0,2.7915374833333333,-9.478720150000001,-1.8716766276666668
1518198911720.0,2.83335267,-9.152609316666666,-1.673629759
1518198911922.0,3.0927337733333333,-9.653756783333332,-1.7426605190000002
1518198912123.0,3.15033875,-9.320504816666665,-0.8691436776666669
1518198912324.0,3.24468079,-9.19323428333333,-0.7993988043333333
1518198912525.0,3.320455936666667,-9.204104649999998,-0.8291534433333334
1518198912727.0,3.3404510566666668,-9.172445716666665,-0.8191558856666666
1518198912929.0,3.4057525699999998,-9.139279216666665,-0.8252655046666666
1518198913131.0,3.458914189999999,-9.125076316666664,-0.8305816663333332
1518198913331.0,3.4862884566666663,-9.119442750000001,-0.8444671643333332
1518198913534.0,3.53238831,-9.098654166666666,-0.8599395756666666
1518198913735.0,3.5671417266666667,-9.086593616666665,-0.8590667723333333
1518198913937.0,3.6123687799999993,-9.084054583333334,-0.8536712656666666
1518198914138.0,3.61752625,-9.043112216666668,-0.8501800556666665
1518198914338.0,3.6624359166666665,-9.035098283333333,-0.8449432389999999
1518198914541.0,3.5961822533333327,-9.02843325,-0.822171021
1518198914741.0,3.5322296166666667,-9.064694216666666,-0.8316925056666666
1518198914944.0,3.49414368,-9.05850525,-0.846371459
1518198915145.0,3.4558990533333334,-9.049221783333333,-0.8649383556666667
1518198915346.0,3.3334686346666667,-9.064218116666666,-0.8924713139999999
1518198915548.0,3.3007782046666665,-9.059139983333335,-0.9046112073333332
1518198915749.0,3.2193695113333334,-9.067074550000001,-0.9125457763333331
1518198915950.0,3.1974700946666665,-9.080166583333334,-0.9100860596666666
1518198916153.0,3.163827514666666,-9.08667295,-0.9115936263333333
1518198916354.0,3.091860961333333,-9.101986666666665,-0.9087371809999999
1518198916555.0,3.0211639380000004,-9.112142899999998,-0.8999298079999999
1518198916757.0,2.954830928,-9.121346999999998,-0.9042938213333331
1518198916958.0,2.8747711146666672,-9.141818199999998,-0.8788238506666665
1518198917160.0,2.806533808,-9.231716866666666,-0.8682708719999999
1518198917360.0,2.861996454666667,-9.1416595,-1.0604461653333332
1518198917562.0,2.883499138,-8.982412666666665,-1.1957305966666667
1518198917764.0,2.611105331333333,-8.836337233333332,-1.1414581353333333
1518198917965.0,2.8699310180000004,-9.002011066666666,-1.1212249820000002
1518198918167.0,2.453921484666667,-9.0496185,-1.2431793233333335
1518198918369.0,2.5396941913333335,-9.241952499999996,-1.5079559366666666
1518198918569.0,2.3283172380000003,-8.794601409999999,-1.4316253710000004
1518198918771.0,2.1474090346666665,-9.28019711,-1.393539432666667
1518198918973.0,1.8247894079999993,-9.17585751,-1.2853118903333334
1518198919174.0,1.932937601333333,-9.290750109999998,-1.479074097
1518198919375.0,1.6107940479999996,-8.900765989999996,-1.1994598403333334
1518198919577.0,1.5761199746666663,-9.53553162333333,-1.3187164323333334
1518198919779.0,1.1033782913333334,-9.121585089999998,-1.3154632590000004
1518198919980.0,1.0933013846666664,-9.063186636666666,-1.4662994390000001
1518198920181.0,0.7697296079999999,-8.609011826666666,-1.0832183856666668
1518198920383.0,0.6728485046666663,-9.215213026666667,-1.2485748356666666
1518198920583.0,0.5730316113333332,-8.85315857,-1.3274444636666667
1518198920785.0,0.953890984666667,-8.67701112,-1.8337493869999997
1518198920986.0,0.7877410813333336,-8.139523319999997,-1.7063201869999998
1518198921188.0,1.260720808,-8.787539686666666,-1.715286250333333
1518198921389.0,1.0692596266666667,-8.36811831,-1.5805572469999998
1518198921591.0,1.3192779433333335,-8.437069743333334,-1.8713592503333332
1518198921793.0,1.66689147,-8.135397371333333,-2.0440155003333333
1518198921994.0,0.9902313099999999,-8.765322904666665,-2.5029510549999996
1518198922196.0,0.9447662233333332,-8.583700584666666,-2.6920318649999997
1518198922397.0,1.1649505399999998,-8.601474018,-2.9821197569999995
1518198922597.0,1.23826597,-8.544979884666667,-3.0720977853333333
1518198922799.0,1.310073833333333,-8.106277491333334,-2.968789678666666
1518198923001.0,1.1382110399999996,-8.286233558000001,-2.8437408509999997
1518198923202.0,1.0437896533333328,-7.9137848296666675,-2.916024785
1518198923404.0,1.0755279399999997,-8.152853429666667,-2.991561901666666
1518198923606.0,0.5686675733333332,-7.832852209666665,-2.7693939249999997
1518198923806.0,1.3210235399999997,-8.571243309666666,-3.177310188333333
1518198924008.0,0.9523040546666663,-7.905770876333334,-2.953237921666666
1518198924209.0,1.611984254666666,-8.284884643000002,-3.1951629883333332
1518198924411.0,1.6526092546666664,-7.737240596333335,-3.2732391549999997
1518198924611.0,1.4065582146666664,-8.568704219666667,-3.290774555
1518198924814.0,1.5544586046666662,-7.822616573000002,-3.29418642
1518198925016.0,1.4549590846666665,-8.389462273000001,-3.59062197
1518198925216.0,1.3446685546666661,-8.252273539666668,-3.479379296666667
1518198925419.0,1.5400176759999995,-8.231961039666668,-3.549044823333334
1518198925620.0,1.298965429333333,-7.981228606333335,-3.429946923333334
1518198925821.0,1.4176665859999993,-7.9404449196666675,-3.298867820000001
1518198926021.0,1.5486663426666663,-7.990908773000001,-3.339254783333334
1518198926223.0,1.3701385093333327,-8.043435629666668,-3.5937164500000005
1518198926425.0,1.7546477926666662,-7.977578696333334,-3.661398330000001
1518198926627.0,1.826773035333333,-7.975595053000001,-3.685281386666667
1518198926827.0,1.7841643853333327,-8.130319169666668,-3.3448089866666666
1518198927029.0,1.8722381166666664,-8.239657549666669,-3.4621612833333337
1518198927230.0,1.2264434499999999,-8.555770816333334,-3.070748936666667
1518198927433.0,1.405685393333333,-8.792617739666667,-3.07178043
1518198927634.0,1.2032745,-9.017404139666668,-2.8216034266666665
1518198927834.0,0.9254851900000001,-9.33089901166667,-2.6708465933333336
1518198928037.0,1.5423980366666667,-8.71716001166667,-2.206991605
1518198928237.0,1.5342254266666666,-8.911874365000001,-2.018783598333333
1518198928438.0,1.2973785133333333,-8.896639998333333,-1.7259979516666664
1518198928640.0,1.2138274900000001,-8.973049898333334,-1.6272918959999996
1518198928842.0,1.1129791,-9.433572358333334,-1.7338531759999993
1518198929044.0,1.2853973133333334,-9.256710791666666,-1.880325342666666
1518198929246.0,1.3553802233333332,-9.556954919999999,-1.820022609333333
1518198929446.0,1.1923247966666668,-9.420004253333333,-1.5505645939999997
1518198929649.0,1.6045257400000001,-9.92448424,-1.6390350539999996
1518198929849.0,1.0422027400000002,-9.345974739999999,-1.292691057333333
1518198930051.0,1.0810821353333335,-9.863150039999999,-1.5434234806666662
1518198930253.0,0.7573516553333337,-9.451425189999998,-1.1788299606666666
1518198930454.0,0.5574798286666671,-9.820779436666665,-0.8433563306666669
1518198930656.0,0.958651718666667,-9.451425203333333,-0.9109588693333336
1518198930856.0,0.9278655853333335,-9.725326583333334,-0.9437286450000003
1518198931057.0,1.2790496753333336,-9.287893733333332,-0.7486969066666668
1518198931260.0,1.197402948666667,-9.3206635,-0.6595123350000001
1518198931461.0,1.240408320666667,-9.750082453333333,-0.8470062310000002
1518198931662.0,1.4395660373333337,-9.385647653333333,-0.8303436330000002
1518198931864.0,1.7086273173333333,-9.862356639999998,-0.9546783510000003
1518198932066.0,1.509231564,-9.874258506666667,-0.7648040843333334
1518198932267.0,1.9277801473333331,-10.302011193333332,-0.8783477876666668
1518198932469.0,1.5379547039999997,-9.773410093333334,-0.6419769390000001
1518198932670.0,1.5733428879999998,-10.16188666,-0.5485077023333333
1518198932872.0,1.2396148679999999,-10.164267026666668,-0.36164856733333334
1518198933073.0,1.2942047133333332,-10.611776780000001,-0.337924202
1518198933275.0,1.430123903333333,-9.669308546666667,-0.6783966066666666
1518198933476.0,1.5033599866666663,-9.846963566666668,-0.7717864999999999
1518198933677.0,1.4154449466666663,-9.573141500000002,-0.709103394
1518198933878.0,1.3330841066666663,-9.576632700000003,-0.6722869873333334
1518198934080.0,1.3531585699999997,-9.5650482,-0.6672882079999999
1518198934282.0,1.3543487566666665,-9.565524266666667,-0.645864868
1518198934483.0,1.3516510033333333,-9.564492766666667,-0.6351531986666666
1518198934684.0,1.34355774,-9.554415866666668,-0.6362640383333332
1518198934886.0,1.3550628666666664,-9.539974933333335,-0.6158721933333333
1518198935087.0,1.3469696033333334,-9.539260800000001,-0.6062713643333333
1518198935289.0,1.3539520266666665,-9.541958566666668,-0.5991302516666667
1518198935491.0,1.3532379166666666,-9.546322566666667,-0.5898468043333334
1518198935692.0,1.3384796166666668,-9.543704166666664,-0.5773101826666669
1518198935893.0,1.3346710233333332,-9.543466133333332,-0.5625518813333334
1518198936093.0,1.3279266366666664,-9.5442596,-0.541287232
1518198936294.0,1.3274505633333333,-9.548940983333333,-0.5332733166666666
1518198936496.0,1.3245147733333331,-9.55354305,-0.5207366966666667
1518198936698.0,1.302932743333333,-9.553860416666666,-0.5062957786666668
1518198936899.0,1.2936492966666666,-9.56020805,-0.4988372830000001
1518198937101.0,1.2788116500000002,-9.556399466666665,-0.4968536413333334
1518198937302.0,1.2787323033333335,-9.561953666666666,-0.488919071
1518198937505.0,1.27413025,-9.561080866666666,-0.49391785033333335
1518198937705.0,1.2694488533333332,-9.563699266666667,-0.49098205933333333
1518198937907.0,1.2646087633333334,-9.5604461,-0.49137878799999996
1518198938109.0,1.2505645733333335,-9.569888233333332,-0.4722564733333333
1518198938310.0,1.1602691633333333,-9.537594533333333,-0.6095245366666667
1518198938511.0,1.1958953833333335,-9.455789133333331,-0.7283050553333333
1518198938712.0,1.2333465533333334,-9.426193166666664,-0.8559722886666666
1518198938914.0,1.1235321000000003,-9.405245899999997,-0.8387542713333332
1518198939116.0,1.1136138866666667,-9.4201629,-0.8104278553333333
1518198939317.0,1.0610870300000002,-9.419290083333332,-0.7295745839999999
1518198939518.0,0.9831695500000001,-9.422543266666665,-0.7036285393333334
1518198939719.0,0.9569854683333334,-9.416909733333332,-0.70767517
1518198939921.0,0.9921356183333334,-9.384377999999998,-0.7819427466666666
1518198940123.0,0.9758697483333333,-9.347799633333333,-0.9181793143333333
1518198940324.0,0.9475433326666668,-9.320822099999999,-1.0381500176666667
1518198940525.0,0.9049346902000001,-9.359066733333332,-1.1968414236666667
1518198940726.0,0.9309600802,-9.399691733333334,-1.1207488930000002
1518198940929.0,0.9532562235333332,-9.407229599999999,-1.1670074380000002
1518198941131.0,0.9840423568666666,-9.383822633333333,-1.139474479
1518198941331.0,1.0145904535333334,-9.469674683333336,-1.1291595376666668
1518198941533.0,0.9327056868666667,-9.468246450000002,-1.1293975746666667
1518198941733.0,0.9280242902000002,-9.367715430000002,-1.2085845863333335
1518198941935.0,0.9795196502000001,-9.274087490000001,-1.3202239910000002
1518198942137.0,0.9999114968666667,-9.228146323333334,-1.4447967436666669
1518198942338.0,1.0116546602,-9.170700046666667,-1.466140739
1518198942540.0,1.0076080268666667,-9.169509846666665,-1.4413055333333333
1518198942741.0,1.0189544602,-9.185617013333333,-1.4582855136666666
1518198942942.0,1.0331573402,-9.131106526666667,-1.4020294103333335
1518198943144.0,1.0236358552,-9.140389959999998,-1.3664031886666668
1518198943345.0,1.0426788251999999,-9.165621893333332,-1.446463004
1518198943547.0,1.1444793652,-9.17601616,-1.4021881020000002
1518198943749.0,1.1547149618666666,-9.170858693333335,-1.4021881020000002
1518198943951.0,1.2176361051999998,-9.140389926666668,-1.4357513353333335
1518198944152.0,1.2619110085333332,-9.08556206,-1.4832794100000002
1518198944352.0,1.3804534885333333,-9.071121126666666,-1.3724334666666664
1518198944554.0,1.2955535858666667,-9.168557626666667,-1.1912078799999999
1518198944756.0,1.2628631592000001,-9.203945826666667,-1.1297943066666665
1518198944958.0,1.3149139412,-9.223147493333332,-1.1166229189999999
1518198945159.0,1.3464141845333333,-9.27813406,-1.1167022646666664
1518198945359.0,1.4316314712,-9.304476843333333,-1.246591181333333
1518198945562.0,1.5463653578666667,-9.24774466,-1.3255401559999997
1518198945763.0,1.6441986062,-9.226162626666667,-1.4999420113333328
1518198945965.0,1.5613616902,-9.273214626666668,-1.514779658
1518198946166.0,1.6241241435333333,-9.279482960000001,-1.2856292713333333
1518198946368.0,1.8219329825333332,-9.25639336,-1.1792266846666666
1518198946569.0,1.9223846416666666,-9.22322686,-0.9480133046666668
1518198946771.0,1.8905670149999998,-9.208071826666666,-0.9835601813333333
1518198946971.0,2.002047728333333,-9.191964626666666,-0.8987396246666666
1518198947172.0,1.922622680333333,-9.305349626666665,-0.9173858646666666
1518198947374.0,1.8727935769999997,-9.209420676666666,-0.8938995363333333
1518198947576.0,2.042276000333333,-9.100479043333332,-0.9810211186666666
1518198947777.0,1.9559478736666664,-9.162368696666666,-0.9972869886666665
1518198947979.0,1.9885589569999995,-9.245126269999998,-0.8481170653333333
1518198948179.0,2.0505279536666663,-9.295352103333332,-0.7073577893333333
1518198948380.0,2.099722290333333,-9.330581596666667,-0.6758575439999999
1518198948582.0,2.1733551036666663,-9.309713663333333,-0.6815704344666667
1518198948785.0,2.1845428469999995,-9.285592596666667,-0.6591949461333333
1518198948986.0,2.2038238536666666,-9.325741516666668,-0.7504425027999999
1518198949188.0,2.2871368420000002,-9.31709285,-0.813284301133333
1518198949388.0,2.334664918666667,-9.27019955,-0.7781341544666665
1518198949591.0,2.280233765333333,-9.26012265,-0.870492551133333
1518198949792.0,2.3302215586666666,-9.258932466666666,-0.8849334687999998
1518198949994.0,2.3529144286666672,-9.271945166666667,-0.8714446987999999
1518198950195.0,2.3768768320000007,-9.3155853,-0.8400238021333333
1518198950397.0,2.420913698666667,-9.343197633333332,-0.8254241921333334
1518198950598.0,2.536599734666667,-9.313284333333332,-0.9042938221333332
1518198950799.0,2.5909515413333337,-9.293368566666667,-0.8598602287999999
1518198950999.0,2.717666632666667,-9.273611499999998,-0.9096893321333333
1518198951202.0,2.774874882666667,-9.184664966666668,-0.9691986078
1518198951403.0,2.8040740993333335,-9.140310699999999,-0.9512664778000001
1518198951605.0,2.8321624793333333,-9.18014225,-0.9164337144666668
1518198951806.0,2.8312103360000003,-9.192044116666665,-0.7561553944666667
1518198952008.0,2.9508636553333334,-9.162289483333332,-0.6808563228000001
1518198952208.0,2.971334845333334,-9.176254316666666,-0.7901947028000001
1518198952410.0,2.873977665333334,-9.211483816666666,-0.7976531994666668
1518198952611.0,2.885086065333334,-9.192916916666666,-0.8887420681333335
1518198952813.0,2.960702522000001,-9.153085383333336,-0.9459503198
1518198953015.0,2.895162972000001,-9.147293150000003,-1.0017303497999999
1518198953215.0,3.008389286666667,-9.04255681666667,-1.0241851844666667
1518198953416.0,3.0970977800000004,-9.040335116666668,-1.070047000133333
1518198953619.0,3.076626586666667,-9.136105383333334,-0.9968109168
1518198953821.0,3.2365081800000004,-9.162765533333333,-0.9077850368
1518198954022.0,3.2213531500000006,-9.1588776,-0.9582489048
1518198954224.0,3.2044525166666666,-9.140152,-0.9925262484666667
1518198954426.0,3.2113555933333333,-9.146340949999999,-1.0151397737999999
1518198954627.0,3.21087952,-9.151419083333334,-1.0450531039999997
1518198954827.0,3.253170783333333,-9.14459535,-1.0684600866666667
1518198955029.0,3.2874481233333332,-9.142056283333332,-1.051638799
1518198955230.0,3.2775299099999997,-9.128091416666665,-1.036563114
1518198955432.0,3.29355774,-9.133090183333332,-1.0118866006666667
1518198955632.0,3.312124633333333,-9.11825255,-0.9746734673333333
1518198955834.0,3.318551633333333,-9.1080963,-0.9741973933333333
1518198956037.0,3.3055389400000004,-9.1089691,-0.9518219046666666
1518198956237.0,3.3129974333333334,-9.078341666666669,-0.9540435846666666
1518198956438.0,3.304666133333334,-9.0753265,-0.934841924
1518198956641.0,3.283718866666667,-9.0612823,-0.942379764
1518198956841.0,3.33632506,-9.047396800000001,-0.9261932406666668
1518198957044.0,3.2442046953333334,-9.067788633333333,-0.9647552506666667
1518198957245.0,3.214767442,-9.080722,-0.936746219
1518198957445.0,3.1860442986666664,-9.09833676666667,-0.9363494923333333
1518198957647.0,3.085751328666667,-9.083657816666669,-0.92936707
1518198957848.0,2.991647323333333,-9.095956383333334,-0.9361114533333332
1518198958051.0,2.8930206153333327,-9.101907316666667,-0.9383331316666665
1518198958252.0,2.8161346286666666,-9.101748616666665,-0.9442047149999999
1518198958453.0,2.6953704696666674,-9.106747383333332,-0.9411102316666667
1518198958655.0,2.5903167581666673,-9.115792783333331,-0.9550750763333333
1518198958855.0,2.4704253995,-9.130471749999998,-0.976657108
1518198959058.0,2.3604522536666663,-8.95075374,-0.9227020293333335
1518198959260.0,2.348867787,-9.29257504,-1.2944366326666665
1518198959460.0,2.171212760333333,-9.17450865,-1.2927703736666665
1518198959662.0,2.086630242333333,-8.978128026666663,-1.2310394156666666
1518198959863.0,1.7044219956666666,-9.380014009999996,-1.2073943963666667
1518198960064.0,1.4893157956666667,-9.492208809999996,-1.3029266217000002
1518198960267.0,1.3774383503333332,-9.28598933333333,-1.2806304790333336
1518198960468.0,1.0664031936666665,-9.295907566666664,-1.5278717057000002
1518198960668.0,0.6350006169999998,-9.543783533333333,-1.8403350740333335
1518198960871.0,0.3664154169999997,-9.10285945,-1.8690582187000002
1518198961072.0,0.3831573636666667,-8.792935143000001,-1.7465484530333337
1518198961274.0,-0.1182281363333334,-9.276071143000001,-1.667916861366667
1518198961475.0,-0.703640723,-9.211325059666667,-2.035049438033334
1518198961675.0,-0.8974822763333332,-9.011056496333333,-2.0419525147000006
1518198961878.0,-0.9635772463333331,-8.771035742999999,-1.9581634533666672
1518198962080.0,-1.0905303716666666,-8.907748392999999,-2.177474975366667
1518198962280.0,-1.173922705,-9.199819926333333,-2.4209869520333336
1518198962481.0,-1.2854827626666667,-8.916397089666667,-2.4482818727
1518198962682.0,-1.237637306,-8.596237173,-2.2749115127
1518198962884.0,-1.1640838393333333,-8.758419773,-2.5525421360333334
1518198963086.0,-1.1094146513333332,-9.143563839666667,-2.801687629366667
1518198963287.0,-1.311904888,-8.733108506333334,-2.8642913877
1518198963490.0,-1.397439556333333,-8.414059421666668,-2.7436065710333333
1518198963690.0,-1.2062164196666663,-8.697006188333333,-3.131845090033334
1518198963893.0,-1.150436391,-8.774923688333331,-3.2610198967
1518198964094.0,-1.2883392196666663,-8.432467631666666,-3.182626343366667
1518198964294.0,-1.3014312596666662,-8.265524278333334,-3.418045033366667
1518198964496.0,-1.330709824,-8.420645145,-3.859603883366667
1518198964697.0,-1.0271331624999995,-7.9580597116666665,-3.710354613366667
1518198964899.0,-1.0285613851666664,-7.668685920666666,-3.5808624267000004
1518198965101.0,-1.1021148526666662,-8.387002564,-3.8407989487000003
1518198965303.0,-1.1808257926666663,-8.177212530666667,-3.7430450487000004
1518198965504.0,-0.9558013793333328,-8.261874387333334,-3.8746002243666666
1518198965704.0,-0.9335845813333327,-8.251956177333334,-3.8569061323666665
1518198965907.0,-0.7937774579999998,-7.5892608673333335,-3.9386322049999998
1518198966108.0,-0.6120757979999998,-7.507852200666667,-4.1549285949999994
1518198966308.0,-0.3681671059999999,-8.163961810666667,-4.356704720000001
1518198966511.0,-0.42188413933333335,-7.723275770666668,-4.213247673333333
1518198966711.0,-0.017935172666666693,-7.525784337333334,-3.745663456666666
1518198966914.0,0.2370025606666667,-8.328604154,-4.0298004333333335
1518198967115.0,0.13440856633333345,-8.490945461,-4.114859026999999
1518198967317.0,0.6077056863333333,-7.656546044333334,-4.059793110333332
1518198967518.0,1.3810088863333334,-8.097390761000002,-3.570944223666666
1518198967718.0,1.5411285196666666,-8.754769891,-3.9340301669999995
1518198967920.0,1.3918792530000001,-8.684390253666669,-3.815963760333333
1518198968123.0,1.4568633850000001,-8.281631463666667,-3.6233123936666662
1518198968323.0,1.6987090883333336,-8.468173196999999,-3.816677860333333
1518198968525.0,1.613491802666667,-8.438973977,-3.6558441203333327
1518198968727.0,1.5543792560000003,-8.440005472,-3.6831390403333333
1518198968927.0,1.256674186,-8.794125372,-3.6980560403333333
1518198969130.0,1.2245391793333333,-8.561245705333334,-3.579275540333334
1518198969330.0,1.234060666,-8.75476987866667,-3.411141993666667
1518198969531.0,1.1373382543333332,-9.658517430000002,-3.576498440333333
1518198969734.0,1.0722747876666665,-9.36366879666667,-3.183499179333333
1518198969936.0,1.1557464743333332,-9.29273373,-2.955777009333333
1518198970137.0,1.4075103876666666,-9.63249202,-2.9685516673333328
1518198970337.0,1.472415171,-9.76325374,-2.6321258939999996
1518198970539.0,1.4754303076666666,-9.603610173333333,-2.0136261273333327
1518198970740.0,1.2311248876666667,-10.106106506666668,-2.140896637333333
1518198970941.0,1.2953155623333334,-10.388101131000003,-2.1988983449999995
1518198971143.0,1.4120330923333335,-9.864736881,-1.9554657289999988
1518198971344.0,1.509548965666667,-9.772695847666666,-1.6363373199999995
1518198971547.0,1.4037017990000002,-9.803720014333333,-1.4818512361666665
1518198971749.0,1.407986465666667,-10.033584514333333,-1.5560394694999997
1518198971950.0,1.6025421290000004,-10.300741491,-1.5274750194999998
1518198972151.0,1.575088515666667,-10.271304224333333,-1.2246124695
1518198972351.0,1.3990203990000003,-9.823715124333331,-1.0509247228333332
1518198972554.0,1.7475860656666669,-10.190054230999998,-0.8118561194999999
1518198972756.0,1.6707000760000001,-10.171487330999998,-0.9882416161666663
1518198972956.0,1.6516571093333334,-9.829666064333331,-0.6675262694999999
1518198973157.0,1.6794281036666665,-9.990737830999997,-0.7022796874999999
1518198973358.0,1.6535614069999998,-10.34454031433333,-0.842721580833333
1518198973560.0,1.3965606869999996,-9.981454380999999,-0.9530914541666664
1518198973763.0,1.3671234269999997,-9.537753231,-0.5755645924999999
1518198973964.0,1.5466827536666663,-9.853152388333333,-0.7725006268333332
1518198974164.0,1.5564422736666665,-10.138320861666667,-0.7454437434999999
1518198974367.0,1.3595855836666668,-9.688668761666667,-0.3057892001666666
1518198974569.0,1.5108184936666669,-10.023190251666668,-0.44670717016666667
1518198974770.0,1.501217663666667,-10.36866144,-0.5641388115000001
1518198974971.0,1.626583873666667,-9.877035439999998,-0.26754455816666667
1518198975173.0,1.6375335803333335,-9.719454873333332,-0.08211364749999996
1518198975374.0,1.7956695670000002,-9.941860866666666,-0.18796081883333338
1518198975575.0,1.9643585303333335,-9.358352566666666,-0.12345276216666667
1518198975777.0,1.8865997403333339,-9.395327666666665,-0.11940613116666669
1518198975978.0,1.7954315203333338,-9.387789833333333,-0.2001800578333333
1518198976180.0,1.7342559836666671,-9.397390666666666,-0.25215149316666663
1518198976382.0,1.7070404103333339,-9.446029566666665,-0.33752747149999995
1518198976583.0,1.8084442203333337,-9.457614033333332,-0.5083587681666666
1518198976784.0,1.8067779603333336,-9.416830333333333,-0.5058197048333333
1518198976986.0,1.8291534470000002,-9.425479033333332,-0.5496185338333331
1518198977187.0,1.8418487603333333,-9.416433616666666,-0.5788970984999998
1518198977388.0,1.7842437770000001,-9.389535416666664,-0.6194427528333333
1518198977589.0,1.796463017,-9.404531749999999,-0.6391998333333332
1518198977790.0,1.7935272269999998,-9.394613549999999,-0.6377716099999999
1518198977993.0,1.8033660936666667,-9.393264683333335,-0.6123016376666667
1518198978195.0,1.8002716103333334,-9.412069616666667,-0.5864349376666665
1518198978395.0,1.7571075486666667,-9.419290083333333,-0.6000824009999999
1518198978596.0,1.7151336719999999,-9.501650916666666,-0.7448089643333332
1518198978799.0,1.7267181449999998,-9.475625516666666,-0.7255279576666666
1518198978999.0,1.6910125783333332,-9.480227549999999,-0.7132293743333331
1518198979200.0,1.676095588333333,-9.488400183333333,-0.7048980759999998
1518198979403.0,1.6979949983333333,-9.474117949999998,-0.6683197066999997
1518198979605.0,1.663162235,-9.486654583333332,-0.6384063766999998
1518198979806.0,1.6348358203333333,-9.506729033333334,-0.5821502716999999
1518198980007.0,1.571200565,-9.490939266666668,-0.5699310333666665
1518198980207.0,1.575643925,-9.400564500000002,-0.5535064721333333
1518198980410.0,1.6873626716666665,-9.637887500000001,-0.8581939821333333
1518198980612.0,1.7348907516666665,-9.147848433333333,-0.7552032588
1518198980812.0,1.7648834283333332,-10.127966266666665,-1.6188018908
1518198981014.0,1.7103729296666665,-9.830578579999997,-1.4086151241333333
1518198981215.0,1.6904571563333333,-9.518353246099998,-1.7634491014666667
1518198981417.0,2.2349273796666664,-9.359423812766666,-2.1333587634666666
1518198981619.0,2.031564336333333,-9.070367422766667,-2.1020965557999998
1518198981819.0,2.2408782929999997,-9.149078356099999,-1.9730804411333334
1518198982022.0,1.902865613,-9.055212389433333,-2.0160858111333333
1518198982223.0,1.9749908563333332,-9.179229722766667,-2.2979217378000003
1518198982423.0,1.9588043296666666,-8.770361329433333,-1.988314799466667
1518198982626.0,2.084567266333333,-9.3567260961,-2.257693469466667
1518198982826.0,1.9985565229999998,-8.990625032766665,-2.1588287228
1518198983028.0,2.0687774696666663,-8.931750499433333,-2.3920257428
1518198983229.0,2.0197418243333334,-8.473767109433332,-2.0480621141333333
1518198983430.0,2.5747650076666666,-8.979199242766665,-2.208023052133333
1518198983632.0,2.4471771143333334,-8.570489542766666,-2.2428558154666667
1518198983833.0,2.912698364333333,-8.260803249099999,-2.5423064988000004
1518198984034.0,2.8740570076666665,-7.783221459099999,-2.523342875800001
1518198984236.0,3.169381724333333,-8.719104025766665,-2.6729888724666675
1518198984439.0,3.0160858226666662,-8.335943615766666,-2.4786712424666675
1518198984640.0,3.2951446659999997,-8.219860862433334,-2.716390962466667
1518198984841.0,3.555874649333333,-7.864550812433334,-2.969424422466667
1518198985043.0,3.1280426159999997,-8.0468078791,-2.779232772466667
1518198985243.0,3.3482269426666664,-7.890893559100001,-2.6590240324666667
1518198985446.0,2.8298614759999996,-8.171063259100002,-2.7697112884333333
1518198985647.0,2.906588769333333,-8.332055692433332,-2.9013458084333332
1518198985849.0,2.8977020506666666,-7.794805949100001,-2.8662750084333335
1518198986050.0,3.086624169333333,-8.347607449100002,-2.930624372433333
1518198986252.0,3.022592186533333,-8.036572289100002,-2.721945170333333
1518198986453.0,3.0267181665333327,-7.6544433891,-2.703695637
1518198986655.0,2.6764862331999995,-7.743707305766667,-2.5638885069999997
1518198986856.0,3.1121734998666666,-6.903396605766667,-2.088925140333333
1518198987058.0,3.1999298485333343,-6.7566070591,-2.2853057546666666
1518198987259.0,3.7028229318666672,-7.176187126333334,-2.230319188
1518198987460.0,3.398214765199999,-6.9853607129999995,-1.9224578646666663
1518198987662.0,2.9119843318666665,-8.213790903,-1.5778594723333332
1518198987862.0,2.5181916151999997,-7.900930803,-1.6230865256666664
1518198988065.0,2.908572458533333,-8.329397602999999,-1.708383152333333
1518198988265.0,2.9311066385333326,-8.287185702999999,-1.5212859956666662
1518198988466.0,2.9480072751999993,-8.229025296333333,-1.7478973289999995
1518198988668.0,2.7232208995333336,-7.8548309629999995,-1.5696075289999998
1518198988871.0,2.4865326662,-7.969961576333333,-1.4037750089999994
1518198989072.0,2.5175568362,-8.126431309666666,-1.5551666256666663
1518198989273.0,2.316970891533333,-8.174752842999998,-1.3819549589999993
1518198989473.0,2.003793424866666,-8.009475776333332,-1.1259857189999998
1518198989676.0,2.048306364866666,-7.982418889666665,-0.9777679456666662
1518198989878.0,2.0393402981999995,-8.08580634,-1.0855987623333332
1518198990079.0,2.0764740881999995,-8.164517276666666,-1.3841766576666665
1518198990280.0,1.4039398881999996,-8.061129809999999,-1.3417267043333332
1518198990482.0,1.5433502918666666,-8.195303393333333,-1.4232147443333332
1518198990683.0,1.1955780691999995,-8.328683513333333,-1.3414093310000004
1518198990885.0,0.8430451058666668,-8.509750406666667,-1.232308977666667
1518198991086.0,1.2299347581999995,-8.295596373333332,-1.5717498910000003
1518198991288.0,1.0124481848666664,-8.378353939999998,-1.6964019900000002
1518198991489.0,1.5188324515333333,-8.121115173333333,-1.6230865600000002
1518198991691.0,1.4786835281999993,-7.953299006666667,-1.4691558966666667
1518198991892.0,1.5345429015333327,-8.48078925,-1.5574676646666668
1518198992093.0,1.4022736148666664,-7.943460150000001,-1.510812392666667
1518198992295.0,1.442184504333333,-8.33360297666667,-1.7538482826666673
1518198992496.0,1.3510162909999996,-8.56925971,-1.4970062526666668
1518198992698.0,1.6558624776666666,-8.96606756,-1.7451996126666667
1518198992899.0,1.196926921,-8.821737726666669,-1.3708465726666668
1518198993100.0,1.176455731,-9.261392260000003,-1.3878265533333336
1518198993302.0,0.7114105476666668,-9.15403752666667,-1.1021026780000003
1518198993503.0,0.49043276766666666,-9.525851506666669,-1.0481476013333337
1518198993704.0,1.180819701,-8.58790594,-1.4301178200000002
1518198993906.0,1.3720428443333332,-8.820150806666666,-1.5298553666666668
1518198994106.0,1.319674681,-8.48166204,-1.4097259780000002
1518198994308.0,1.219381711,-8.392556806666667,-1.3275238280000001
1518198994510.0,1.2351715043333333,-8.863156173333333,-1.4242462380000003
1518198994711.0,1.3364959666666667,-8.64678044,-1.3397430613333337
1518198994912.0,1.6752227733333334,-8.89965519,-1.6187225546666668
1518198995113.0,1.55898132,-8.79737859,-1.232864386
1518198995316.0,1.8180450466666667,-9.20918278,-1.7498809893333334
1518198995518.0,1.5873870733333335,-8.859744280000001,-1.8695343126666668
1518198995718.0,1.6742706200000002,-9.289163233333333,-1.9939483760000003
1518198995920.0,1.2354888733333333,-9.488638343333335,-1.5907135060000002
1518198996122.0,1.24366148,-9.880368080000002,-1.3269683726666663
1518198996323.0,1.6433258000000002,-9.03692328,-1.2460357560000004
1518198996523.0,1.7136260963333334,-9.29273384,-1.360293566
1518198996725.0,1.821774289,-9.263137906666666,-1.2108062593333335
1518198996926.0,1.9719757056666667,-9.435556129999998,-1.0802032326666668
1518198997129.0,2.08432922,-9.449282929999999,-0.9536468393333333
1518198997329.0,2.12400207,-9.524343966666667,-0.9720550436666666
1518198997531.0,2.146615596666667,-9.512680133333332,-0.9813384903333333
1518198997732.0,2.17383117,-9.502523866666666,-1.0564788703333334
1518198997935.0,2.196444696666666,-9.482925466666666,-1.0769500623333332
1518198998135.0,2.2111236533333334,-9.483480883333334,-1.0890899543333334
1518198998337.0,2.2584930366666667,-9.482766766666666,-1.0957549943333336
1518198998539.0,2.251510616666667,-9.386996500000002,-1.082345571
1518198998739.0,2.274917596666667,-9.385171566666669,-1.0946441543333332
1518198998942.0,2.2855499200000002,-9.384298766666669,-1.0952789209999998
1518198999144.0,2.29808654,-9.383664000000001,-1.1086883459999999
1518198999344.0,2.306338493333333,-9.3784272,-1.1238433746666665
1518198999545.0,2.31046447,-9.345101999999999,-1.138284291333333
1518198999747.0,2.3323638866666667,-9.337326116666667,-1.151296986
1518198999950.0,2.35093078,-9.333596883333334,-1.1499481093333332
1518199000151.0,2.366720576666667,-9.334549016666665,-1.1567718413333332
1518199000351.0,2.3933013866666673,-9.332962116666668,-1.1610565113333333
1518199000553.0,2.40052185,-9.325027550000001,-1.1651824880000001
1518199000755.0,2.412899783333333,-9.32264715,-1.1812103213333336
1518199000956.0,2.4217865,-9.318203783333333,-1.1931915213333333
1518199001158.0,2.4415435800000003,-9.31574405,-1.209774773333333
1518199001358.0,2.4629669200000004,-9.312490883333334,-1.2232635433333332
1518199001559.0,2.4791534433333333,-9.311776783333332,-1.2119964533333332
1518199001761.0,2.49653015,-9.308920316666665,-1.2159637366666665
1518199001962.0,2.5058929433333335,-9.308206183333331,-1.220327751333333
1518199002165.0,2.5326324466666668,-9.311697399999998,-1.1871612489999999
1518199002367.0,2.5546905499999997,-9.310903933333332,-1.1970001156666668
1518199002567.0,2.5853179866666665,-9.280197133333333,-1.2776153456666668
1518199002768.0,2.64863586,-9.213229353333332,-1.3531524556666668
1518199002971.0,2.7325042733333333,-9.169985933333333,-1.4328155390000001
1518199003172.0,2.7405975399999996,-9.249014266666666,-1.4436859023333335
1518199003374.0,2.7647979799999995,-9.263772566666667,-1.392983996666667
1518199003575.0,2.775668343333333,-9.283926366666666,-1.402267446666667
1518199003777.0,2.839462283333333,-9.267819199999998,-1.3346649100000003
1518199003978.0,2.8099456833333325,-9.335739133333332,-1.294992057966667
1518199004179.0,2.9318206833333322,-9.290432736666666,-1.3299041679666668
1518199004381.0,3.010928349999999,-9.209024053333334,-1.3554534846333335
1518199004582.0,3.123757936666666,-9.155386363333333,-1.5127960146333335
1518199004783.0,3.1808868466666658,-9.136978163333334,-1.5123199413
1518199004984.0,3.1946136533333327,-9.140707396666668,-1.5434234579666664
1518199005186.0,3.244998166666666,-9.139199830000003,-1.5306487979666665
1518199005388.0,3.372506713333333,-9.105239863333336,-1.4811370798333332
1518199005589.0,3.414956663333333,-9.102383396666669,-1.4660613965
1518199005791.0,3.49255676,-9.07937314666667,-1.5361236498333335
1518199005992.0,3.596420286666666,-8.883151213333335,-1.6314178398333334
1518199006194.0,3.523263547333333,-8.888308680000002,-1.7290923965
1518199006395.0,3.623080440666666,-8.685342360000002,-1.6727569465
1518199006597.0,3.6451385406666663,-8.697878993333333,-1.6978301898333334
1518199006798.0,3.683859240666666,-8.701132193333333,-1.6088043098333333
1518199007000.0,3.734799184,-8.683755493333333,-1.5423919565
1518199007201.0,3.8796050906666664,-8.726046759999997,-1.5133514291666668
1518199007402.0,3.914199817333333,-8.716287226666665,-1.4626495248333333
1518199007604.0,3.8879363906666664,-8.654159526666668,-1.4701080181666668
1518199007805.0,3.971566764,-8.609408559999999,-1.5170806748333332
1518199008005.0,4.038693227333333,-8.731759659999998,-1.5282684201666665
1518199008207.0,4.020919787333333,-8.747470093333334,-1.605709825833333
1518199008410.0,4.059719837333333,-8.746517943333334,-1.6007903924999998
1518199008611.0,4.145175167333334,-8.70986023,-1.4225799491666666
1518199008812.0,4.040042110666667,-8.791983043333333,-1.2948333671666665
1518199009014.0,3.902218619666667,-8.80221863,-1.1995391791666665
1518199009214.0,3.962362653,-8.705099463333331,-1.2292144724999998
1518199009416.0,3.9834686096666663,-8.637179546666665,-1.3123687681666665
1518199009618.0,3.9624419963333333,-8.619961546666666,-1.3227630548333331
1518199009818.0,3.9065032829999997,-8.582113646666667,-1.3515655441666665
1518199010020.0,3.929354843,-8.507052613333332,-1.2988799961999997
1518199010221.0,3.9641876063333337,-8.471267693333333,-1.1958892728666664
1518199010424.0,4.0320281829999995,-8.469363393333333,-1.125033560333333
1518199010625.0,4.024410999666666,-8.516970816666664,-0.9100860503333335
1518199010826.0,3.9123748663333333,-8.458254983333331,-0.8922332670000003
1518199011028.0,3.9635528430000004,-8.373910516666665,-0.8370086570000002
1518199011228.0,3.991403193,-8.26703186,-0.9235748170000001
1518199011431.0,3.9350677430000003,-8.263302593333332,-1.0640167151333335
1518199011632.0,3.9664092963333326,-8.290121459999998,-0.965151968466667
1518199011833.0,3.888729849666666,-8.294882193333331,-0.8585906921333335
1518199012036.0,3.797323603,-8.477456659999998,-0.7382232604666668
1518199012236.0,4.013381952333334,-8.408425903333331,-0.5851654004666667
1518199012437.0,3.9082488989999997,-8.61432799,-0.5954009961333333
1518199012639.0,3.907376099,-8.643130456666666,-0.5749298061333332
1518199012842.0,3.9722808856666667,-8.61996149,-0.5810394261333333
1518199013043.0,3.9547454856666664,-8.583938546666666,-0.6426116927999999
1518199013243.0,3.931814578999999,-8.41469416,-0.7695648167999998
1518199013445.0,3.9692657523333326,-8.354629476666666,-0.9073883044666665
1518199013647.0,4.082412729,-8.399777176666666,-0.8427215577999999
1518199013847.0,4.034329228999999,-8.403030343333333,-0.7274322511333333
1518199014050.0,3.9498260556666662,-8.297500543333333,-0.7534576411333334
1518199014250.0,3.9340362656666668,-8.351693676666667,-0.6188873278
1518199014453.0,3.993783579,-8.295834303333335,-0.5847686768
1518199014654.0,3.9403045690000003,-8.337808183333333,-0.6838714601333333
1518199014854.0,4.035043335666666,-8.331619216666667,-0.7527435321333332
1518199015055.0,4.138827516666666,-8.337094083333334,-0.7746429467999999
1518199015257.0,4.105264283333333,-8.342648283333332,-0.7763092067999998
1518199015459.0,4.1313690266666665,-8.348599216666665,-0.7824188267999999
1518199015661.0,4.2170623833333325,-8.318051116666666,-0.7974945068
1518199015863.0,4.280856329999999,-8.336935383333334,-0.8698577874666668
1518199016064.0,4.36012269,-8.304721016666667,-1.0072845474666667
1518199016266.0,4.275381469999999,-8.35510555,-1.1293975841333332
1518199016467.0,4.197860716666666,-8.39819025,-1.2108062766666667
1518199016667.0,4.1658050499999995,-8.36645195,-1.3164154099999998
1518199016870.0,4.2937103233333325,-8.406124816666667,-1.3842559866666666
1518199017072.0,4.30672302,-8.446670450000001,-1.4589202933333334
1518199017273.0,4.304104603333333,-8.515701206666668,-1.4286102366666669
1518199017474.0,4.30894469,-8.51538384,-1.3736236600000002
1518199017676.0,4.314419543333333,-8.46142874,-1.535647586666667
1518199017877.0,4.394955436666666,-8.441274940000001,-1.6177703896666669
1518199018079.0,4.4549407866666675,-8.41128226,-1.6914032013333338
1518199018280.0,4.389242543333333,-8.430959983333333,-1.7916168280000004
1518199018481.0,4.47184142,-8.388033983333333,-1.8846893390000004
1518199018683.0,4.537063586666666,-8.305752516666665,-1.9242828423333336
1518199018884.0,4.51222838,-8.283694416666664,-2.0429046690000003
1518199019086.0,4.55547179,-8.295596259999998,-2.079721075666667
1518199019286.0,4.51706847,-8.380972246666666,-2.024734505666667
1518199019487.0,4.517861926666667,-8.409695396666667,-1.982363899
1518199019690.0,4.50794371,-8.387954696666666,-2.0854339656666667
1518199019890.0,4.549838243333333,-8.38819273,-2.197708135666667
1518199020092.0,4.65505064,-8.330032329999998,-2.209530645666667
1518199020294.0,4.751138283333333,-8.221646096666666,-2.3347381656666664
1518199020495.0,4.729397563333333,-8.232516453333332,-2.405514533333333
1518199020696.0,4.7589141633333325,-8.205538919999999,-2.4347930933333335
1518199020899.0,4.7774017099999995,-8.157217386666666,-2.451535036666667
1518199021100.0,4.8105682199999995,-8.144760119999999,-2.4789093066666665
1518199021301.0,4.821359243333333,-8.121273819999999,-2.4837493933333334
1518199021502.0,4.826754743333333,-8.112228386666667,-2.4831939733333335
1518199021703.0,4.82429503,-8.10778502,-2.4857330400000004
1518199021905.0,4.831356796666667,-8.103976453333333,-2.4887481800000004
1518199022106.0,4.833975203333335,-8.107467653333334,-2.48612977
1518199022309.0,4.845400993333335,-8.098422253333334,-2.4697845566666667
1518199022509.0,4.852780143333335,-8.10127872,-2.47946473
1518199022710.0,4.861111443333334,-8.099374453333333,-2.47391053
1518199022911.0,4.85904846,-8.09953312,-2.4689117499999997
1518199023114.0,4.85579528,-8.102944986666666,-2.4666900700000003
1518199023316.0,4.860079953333333,-8.108419853333332,-2.4666900700000003
1518199023517.0,4.841195676666667,-8.111434986666666,-2.468038946666667
1518199023717.0,4.826754756666666,-8.103024353333334,-2.466610723333333
1518199023920.0,4.803506463333332,-8.139047286666667,-2.458041386666666
1518199024122.0,4.794461046666667,-8.172610533333332,-2.39464417
1518199024322.0,4.712338246666667,-8.034310983333333,-2.3302154566666666
1518199024524.0,4.809616076666667,-8.391445983333332,-2.4601837166666667
1518199024725.0,4.580624376666667,-8.176657149999999,-2.398135378333333
1518199024926.0,4.492788683333334,-7.965042163333332,-2.224685671666667
1518199025129.0,4.58110045,-8.413980163333333,-2.611257925
1518199025329.0,4.5185760366666665,-8.467617863333334,-2.6144317483333332
1518199025531.0,4.44407042,-8.155947933333332,-2.399722275
1518199025732.0,4.144302353333333,-8.727236966666664,-2.0263213849999997
1518199025933.0,4.054959093333333,-9.039938399999997,-2.210324065
1518199026135.0,3.7863738933333333,-8.674630783333331,-2.164858975
1518199026336.0,3.6365692053333336,-8.408267252166665,-2.1204253816666667
1518199026539.0,3.470816029766667,-8.799917618833332,-2.5572234883333333
1518199026739.0,3.4666107064333334,-8.650271612166666,-2.5035857966666666
1518199026941.0,3.284432976433333,-8.256161495499999,-2.4021819866666663
1518199027143.0,3.1716827264333336,-8.307656845499999,-2.458041353333333
1518199027343.0,3.0971771097666667,-8.781747378833332,-2.6550567433333327
1518199027544.0,2.893893419766667,-8.424453692166665,-2.547146586666666
1518199027747.0,2.7095733511,-8.114053308833332,-2.4586761256666665
1518199027949.0,2.8738189511,-8.587033042166667,-2.6805267090000005
1518199028150.0,2.772335797766667,-8.433102388833332,-2.5963409186666664
1518199028350.0,2.7329803277666667,-8.165072589333333,-2.401071142
1518199028553.0,2.7094940010999995,-8.612820389333333,-2.482083108666667
1518199028754.0,2.378463727766667,-8.140713442666666,-2.530404642
1518199028956.0,2.1691497577666663,-7.920767165999999,-2.3845672419999997
1518199029157.0,2.1610565011,-8.482217366,-2.578567482
1518199029357.0,1.9488860944333333,-8.276950022666668,-2.392263772
1518199029559.0,1.7982879504333333,-7.99249568,-2.260787942
1518199029762.0,2.2877715837666663,-8.899337713333333,-2.233254985333333
1518199029963.0,2.2057281271,-9.140310613333334,-2.2963348186666663
1518199030164.0,1.9928436104333336,-8.6583648,-2.3867095753333327
1518199030366.0,1.8987396051,-8.636227349999999,-2.4111480519999997
1518199030568.0,1.7840850651,-8.563387983333334,-2.5827728053333328
1518199030769.0,1.8428008871,-8.548947066666665,-2.410989357
1518199030969.0,1.8308990337666664,-8.436514206666667,-2.4029754403333343
1518199031171.0,1.8846954137666665,-8.407632373333332,-2.011483753666667
1518199031373.0,1.9477752470999998,-8.54267874,-2.218972770333333
1518199031575.0,1.7686126504333335,-8.432388213333333,-2.298001090333334
1518199031776.0,1.9769744670999998,-7.716531296666666,-2.540719610333334
1518199031977.0,1.8444671404333333,-7.886727796666666,-2.6533111770000004
1518199032179.0,1.928890970433333,-7.990670666333332,-2.4612945770000003
1518199032380.0,1.9230193884333329,-7.929653820833332,-2.3882965303333332
1518199032580.0,2.112814310666667,-7.831185820833333,-2.403372197
1518199032783.0,2.0540984939999998,-8.008364760833333,-2.629110722
1518199032985.0,2.104403669,-7.990432630833333,-2.5995147753333336
1518199033186.0,2.357040385666666,-8.2413237475,-2.4074981786666663
1518199033387.0,2.386318952333333,-8.238308647499998,-2.544290162
1518199033588.0,2.2797576756666666,-8.197048880833332,-2.3722686853333332
1518199033789.0,2.3753692476666664,-8.336379930833331,-2.4031341630000003
1518199033991.0,2.112338247666666,-8.2022856975,-2.430587779666667
1518199034193.0,2.0475128073333333,-8.2731414175,-2.387265026666667
1518199034395.0,2.0199798473333326,-8.188400207,-2.3842498933333336
1518199034596.0,1.8402618306666665,-8.764251673666667,-3.18159486
1518199034797.0,2.0076019183333336,-9.094171107,-3.0914581400000003
1518199034999.0,2.029263296,-9.119958460333333,-3.1640594566666667
1518199035200.0,1.9842742859999998,-8.540179417,-2.92086488
1518199035401.0,2.1086089993333332,-8.831616193666665,-3.138668833333333
1518199035603.0,2.3605316000000003,-9.126782202999998,-3.2407867533333334
1518199035805.0,1.8787445,-8.244299303,-3.2292022799999995
1518199036005.0,2.00490417,-7.944372559666667,-3.1350982766666666
1518199036206.0,2.3079254099999997,-8.265802006333333,-3.058847056666666
1518199036407.0,2.4763763386666664,-8.451232906333333,-2.963156136666666
1518199036609.0,2.571591182,-8.203991706333333,-2.661563123333333
1518199036812.0,2.742343136666667,-8.440917989666668,-2.8649261599999996
1518199037013.0,2.8558868366666665,-8.775598169666667,-3.0040985233333326
1518199037213.0,2.7400421166666664,-8.355780036333334,-2.986880503333333
1518199037416.0,2.7607513399999997,-8.175824003,-2.746463023333333
1518199037618.0,3.0383819633333333,-8.591040069666667,-2.849453746666666
1518199037818.0,3.1163787866666666,-8.707598906333331,-2.9573638999999994
1518199038020.0,3.3490997399999998,-8.214068663,-2.620620726666666
1518199038222.0,3.5445282099999997,-8.479638743333334,-2.8266021699999992
1518199038422.0,3.7144073599999996,-8.808367986666669,-2.9086456266666665
1518199038625.0,3.7053619466666663,-8.517486653333332,-2.42098694
1518199038825.0,3.774234016666666,-8.498523053333333,-2.206912233333333
1518199039027.0,3.914279181666666,-8.913977166666665,-2.30538025
1518199039228.0,3.7879608150000004,-8.6169862,-2.41083069
1518199039429.0,3.850961308333334,-8.147418333333333,-2.041238403333333
1518199039632.0,4.181436158333333,-8.548272820000001,-2.2891143733333332
1518199039832.0,4.293551635,-8.721960553333334,-2.301968376666666
1518199040035.0,4.407333368333333,-8.38545542,-2.014974963333333
1518199040235.0,4.593002311999999,-8.47122812,-2.101779163333333
1518199040438.0,4.670364375333333,-8.825506696666665,-2.264279159999999
1518199040639.0,4.885232535333333,-7.80650946333333,-1.337283313333334
1518199040839.0,5.060269157666667,-7.95575874333333,-1.3418060166666672
1518199041041.0,5.2614105166666665,-8.151425233333331,-1.3713226200000006
1518199041242.0,5.331314083333333,-8.171102976666665,-1.384176623333334
1518199041443.0,5.431527703333334,-8.083267276666664,-1.3124481100000003
1518199041645.0,5.368368536666667,-8.073507776666665,-1.299038686666667
1518199041846.0,5.392330936666666,-8.057479943333332,-1.2911041166666668
1518199042049.0,5.3817779566666655,-8.079458686666666,-1.2876129066666666
1518199042251.0,5.315603633333333,-8.21561592,-1.2944366366666666
1518199042451.0,5.339328,-8.194748019999999,-1.3901275566666667
1518199042653.0,5.276089476666667,-8.163882553333332,-1.3483917166666666
1518199042854.0,5.2820404000000005,-8.162692353333332,-1.33410949
1518199043056.0,5.285928333333334,-8.159677219999999,-1.3354583666666666
1518199043258.0,5.273867786666668,-8.164279286666666,-1.315780633333333
1518199043459.0,5.269900506666668,-8.158010953333333,-1.3051483099999996
1518199043661.0,5.262362656666668,-8.169278043333332,-1.2994354199999998
1518199043862.0,5.2867217900000005,-8.202999956666664,-1.284756466666666
1518199044062.0,5.294338973333334,-8.216171333333333,-1.286978146666666
1518199044265.0,5.296719340000001,-8.214743099999998,-1.278408813333333
1518199044466.0,5.292196636666667,-8.216647399999998,-1.2775360099999995
1518199044668.0,5.285055526666667,-8.223471133333334,-1.273965453333333
1518199044869.0,5.286325056666667,-8.222677666666666,-1.276901243333333
1518199045071.0,5.287911969999999,-8.223312433333334,-1.2757904033333332
1518199045272.0,5.28711852,-8.225375433333333,-1.2742034899999997
1518199045472.0,5.287435896666665,-8.2260102,-1.2719024666666665
1518199045674.0,5.281961046666665,-8.2291047,-1.2632537833333335
1518199045876.0,5.281643666666666,-8.2294221,-1.2663482666666668
1518199046077.0,5.2779937666666665,-8.231723116666668,-1.2455596933333333
1518199046279.0,5.262283316666666,-8.230612283333334,-1.2769805933333334
1518199046480.0,5.358053593333333,-8.147061250000002,-1.330300906666667
1518199046681.0,5.344644173333334,-8.098025616666668,-1.451065066666667
1518199046883.0,5.36225892,-8.131906216666668,-1.5651641833333336
1518199047084.0,5.086215220000001,-7.9087067666666675,-1.7033843966666664
1518199047287.0,5.159768686666667,-8.114370833333334,-1.8048675533333336
1518199047488.0,4.884915176666666,-7.982895000000001,-2.0754364133333336
1518199047689.0,4.945297243333332,-7.969961633333334,-2.470419313333333
1518199047891.0,4.638546759999999,-7.523959433333335,-2.3403717066666667
1518199048092.0,4.798983759999999,-7.958218466666668,-2.47756043
1518199048293.0,4.684170533333331,-7.461752393333334,-2.30085755
1518199048495.0,4.649734499999999,-7.297110046666666,-2.5488128866666666
1518199048695.0,4.53484192,-6.908554123333333,-2.2688019066666665
1518199048898.0,5.337265019999999,-7.330514556666667,-2.4378082566666666
1518199049099.0,5.10541688,-6.908712789999999,-2.17009585
1518199049300.0,5.39780578,-6.821987936666667,-2.7036163566666667
1518199049501.0,5.35329284,-6.512142973333333,-2.7540008766666664
1518199049703.0,5.218881219999999,-7.14579774,-2.9371307599999996
1518199049905.0,5.0526519709999995,-7.025827039999999,-2.7906585899999996
1518199050107.0,4.88443908,-6.906491106666666,-2.9158661166666664
1518199050308.0,4.910702513333333,-6.987503073333332,-3.1764374066666665
1518199050508.0,4.65052795,-6.820004296666666,-3.069400053333333
1518199050709.0,4.511990353333333,-6.883163463333331,-3.1274811099999997
1518199050912.0,4.236978146666667,-6.923867796666665,-3.931649826666667
1518199051114.0,4.259353636666666,-6.998770129999999,-4.153976483333333
1518199051315.0,4.069241333333332,-6.522695896666665,-4.135568279999999
1518199051516.0,4.035202023333334,-6.957986429999999,-4.155960123333333
1518199051716.0,4.0254425000000005,-6.604898039999999,-4.053048746666666
1518199051918.0,4.118673713333334,-6.28370663,-4.373764076666666
1518199052119.0,4.132003793333333,-5.9691802633333335,-4.344088784333334
1518199052321.0,4.601254293333333,-6.9906371966666665,-4.660043384333334
1518199052522.0,4.357662970000001,-6.911053453333333,-4.412722827666667
1518199052724.0,4.124703983333334,-7.208758520000002,-4.762399347666667
1518199052927.0,3.995053103333334,-7.206060753333334,-4.953622497666668
1518199053128.0,4.205715943333335,-7.0699828700000005,-4.990200864333334
1518199053328.0,3.9354644733333335,-7.240814170000001,-5.005117854333333
1518199053531.0,3.63371275,-7.025787316666668,-4.536978187666666
1518199053732.0,3.48557433,-6.967864950000002,-4.295291187666668
1518199053934.0,3.2390472300000006,-6.9994445500000015,-4.095736737666667
1518199054136.0,2.890957642,-7.22859495,-4.008218424333333
1518199054335.0,2.9625274686666674,-7.273901346666667,-4.1600067533333345
1518199054538.0,3.038619995333334,-7.220819073333334,-4.369796786666667
1518199054738.0,3.160018922000001,-7.054272429999999,-4.86380312
1518199054941.0,3.1291534553333324,-6.735778796666667,-4.95989077
1518199055143.0,3.134390272,-6.859002675,-5.117630030000001
1518199055343.0,3.1133636720000006,-7.003094461666666,-4.594107083333333
1518199055545.0,3.038699365333334,-7.344677725,-4.5019867225666665
1518199055746.0,2.8484283686666676,-6.5970031816666665,-4.149295072566666
1518199055948.0,2.792092917666668,-6.756011981666666,-4.3774139692333325
1518199056150.0,2.524142478666668,-6.871380648333332,-4.714077769233333
1518199056350.0,2.411154192000001,-6.900500515,-4.602835092566666
1518199056553.0,2.1424896353333343,-6.620251491666667,-4.669723521566667
1518199056754.0,1.9338104420000009,-6.944378691666667,-4.715744028233334
1518199056954.0,2.1297943320000012,-6.562805218333333,-3.8273895215666673
1518199057156.0,2.0033966253333344,-6.635803251666666,-3.8802337549
1518199057357.0,1.9745147886666676,-7.011346465,-3.9427581682333335
1518199057558.0,1.822567770000001,-6.6652404983333335,-3.9518035782333327
1518199057761.0,1.6929962366666673,-7.065380888333333,-4.0462249659
1518199057963.0,1.4630523766666674,-7.446557631666667,-3.7216216959
1518199058164.0,1.329513556666667,-7.799249281666668,-3.7458221349
1518199058364.0,0.7402130100000002,-6.8200836150000015,-3.3678985375666666
1518199058567.0,0.7467193566666671,-7.025906358333334,-3.549282814233333
1518199058769.0,0.8533599833333336,-6.822225958333333,-3.0797149342333325
1518199058969.0,0.8349517800000003,-6.831668124999999,-2.7605865158999987
1518199059171.0,0.7654449433333337,-7.238314858333333,-2.568807954233332
1518199059373.0,0.829080196666667,-6.903952058333333,-2.4236846642333325
1518199059573.0,1.2661956899999998,-7.295919845,-2.5969756842333327
1518199059775.0,1.2219207866666664,-7.411605878333332,-2.4332854975666667
1518199059977.0,1.6365020866666669,-7.870858811666666,-2.7479705609
1518199060178.0,1.687680064666667,-7.258151311666666,-2.6744964395666657
1518199060380.0,1.610476694666667,-7.7489044883333325,-2.689810160566666
1518199060581.0,1.4392486646666667,-8.009237741666665,-2.2238128372333335
1518199060783.0,1.3075347979999998,-8.605838108333332,-2.0013274939000003
1518199060984.0,0.4119598346666667,-8.545138641666666,-1.7276641595666669
1518199061185.0,0.5098724313333334,-8.886721896666666,-1.8298614262333335
1518199061387.0,0.11488952466666665,-8.869186496666666,-1.8148650862333333
1518199061588.0,0.10393981800000004,-8.88108833,-1.843826267
1518199061788.0,0.30452575466666665,-9.035257040000001,-2.005374117
1518199061990.0,0.401644898,-9.037716740000002,-1.9072234836666668
1518199062191.0,0.7041107179999998,-9.086435006666669,-1.4332122653333335
1518199062393.0,0.6630096446666666,-9.021768273333334,-1.2750762786666665
1518199062594.0,1.070767221333333,-9.512997506666668,-1.3055450296666664
1518199062796.0,1.2966644313333333,-9.165225306666668,-1.1910491796666667
1518199062998.0,1.2465179446666665,-9.56814278,-1.2697601163333334
1518199063200.0,1.2257293713333333,-9.448886213333335,-0.9833221363333332
1518199063400.0,1.3242767346666666,-9.590994366666665,-0.9196868829999999
1518199063602.0,1.38846741,-9.543942366666665,-0.8755706729999998
1518199063804.0,1.41028748,-9.534579566666663,-0.8738250686666665
1518199064005.0,1.4192535433333333,-9.517599599999997,-0.8684295619999999
1518199064206.0,1.4282196100000002,-9.517837633333333,-0.8846160853333331
1518199064408.0,1.442343146666667,-9.5164094,-0.9110382059999997
1518199064610.0,1.4594818200000004,-9.517440899999999,-0.9134185776666667
1518199064811.0,1.482650766666667,-9.511489966666666,-0.9138153076666666
1518199065013.0,1.474319466666667,-9.508157433333333,-0.914212036
1518199065213.0,1.4781280600000004,-9.501095666666666,-0.9134979243333333
1518199065415.0,1.483364876666667,-9.5033967,-0.9246063229999999
1518199065617.0,1.49360047,-9.503872766666666,-0.9339691163333332
1518199065819.0,1.4955841133333334,-9.500540266666667,-0.9323028563333333
1518199066020.0,1.5041534466666666,-9.496096899999998,-0.9378570563333333
1518199066220.0,1.51129456,-9.4868928,-0.9526153576666666
1518199066423.0,1.5035980266666664,-9.488241666666667,-0.9534881609999999
1518199066623.0,1.5091522266666664,-9.485385233333334,-0.9507110610000001
1518199066824.0,1.5032012966666664,-9.4865754,-0.945870971
1518199067027.0,1.5006622333333333,-9.487130833333334,-0.9476165763333333
1518199067227.0,1.4997100866666666,-9.485543916666666,-0.9401580796666668
1518199067428.0,1.4941558899999998,-9.490384016666667,-0.9330169676666666
1518199067630.0,1.4937591599999998,-9.489431883333335,-0.9296844489999999
1518199067832.0,1.49598084,-9.489035150000001,-0.9176239023333334
1518199068034.0,1.52740174,-9.491256850000001,-0.9054840089999999
1518199068235.0,1.488522345333333,-9.49649365,-0.9946685806666666
1518199068435.0,1.4833648753333333,-9.361843983333332,-1.0875823973333332
1518199068638.0,1.5110565253333335,-9.35256055,-1.218899534
1518199068840.0,1.5990509153333332,-9.297891349999999,-1.1843841535
1518199069041.0,1.7139434919999998,-9.323599366666665,-1.1735931388333332
1518199069243.0,1.6971222036666664,-9.32510693333333,-1.184304808833333
1518199069443.0,1.7052154636666665,-9.326138433333332,-1.1698638904999998
1518199069646.0,1.7609954903333331,-9.301699933333332,-1.1238433831666665
1518199069847.0,1.7695648236666666,-9.297970666666666,-1.1070220931666666
1518199070047.0,1.7485382136666663,-9.310824666666669,-0.9960174531666668
1518199070250.0,1.7268768369999998,-9.296225066666667,-1.0907562231666668
1518199070452.0,1.7383819636666669,-9.192599566666669,-1.2037444998333333
1518199070651.0,1.6859344536666667,-9.139914023333334,-1.3183196981666667
1518199070853.0,1.732351687,-9.123410123333334,-1.2618255575
1518199071055.0,1.8521637036666667,-9.122378623333335,-1.2638885458333333
1518199071256.0,1.9145294269999997,-9.090481656666665,-1.2657134971666666
1518199071458.0,2.016171273666666,-9.059298789999998,-1.236911007
1518199071660.0,2.1295562869999998,-9.051681589999998,-1.1923980669999998
1518199071860.0,2.058065807,-9.069931089999997,-1.1385223346666666
1518199072063.0,2.0290252803333337,-9.038272156666665,-1.1546295113333336
1518199072264.0,2.036245740333333,-9.120791656666665,-1.1886688180000002
1518199072465.0,2.000778211333333,-9.087704489999998,-1.1670074403333335
1518199072667.0,2.035769668,-9.007565316666666,-1.1694671569999997
1518199072868.0,2.046322648,-8.946151749999999,-1.2507171569999997
1518199073069.0,1.9909393469999999,-8.926394649999999,-1.2667449893333331
1518199073272.0,1.9981598069999997,-8.877200299999998,-1.1585174526666664
1518199073473.0,2.1128143436666664,-8.863632166666665,-1.1516937213333331
1518199073674.0,2.1128143436666664,-8.804360923333332,-1.17002258
1518199073875.0,2.105355847,-8.805392423333332,-1.1410613983333333
1518199074077.0,1.9941925136666663,-8.80880429,-1.114321897
1518199074278.0,1.9933990566666664,-8.741757173333333,-0.9876068076666665
1518199074479.0,2.07441102,-8.771670499999999,-0.969674681
1518199074681.0,2.0758392433333333,-8.728030366666665,-1.0056182843333334
1518199074883.0,2.10273743,-8.766274999999998,-1.1064666715
1518199075084.0,2.0754425066666666,-8.735885583333333,-1.0759185758333334
1518199075286.0,2.1599456816666667,-8.755721983333332,-1.0122039758333334
1518199075487.0,2.1286041316666666,-8.771908516666667,-1.0022857628333335
1518199075688.0,2.1771637016666667,-8.765164149999999,-1.0078399618333336
1518199075891.0,2.222311408333333,-8.805551116666667,-0.9799896198333334
1518199076092.0,2.2906280583333327,-8.774447616666668,-1.0651275605000003
1518199076293.0,2.4025848416666657,-8.719064316666667,-1.0572723371666668
1518199076494.0,2.454238891666666,-8.829830916666667,-1.0384674071666666
1518199076695.0,2.6177703849999996,-8.875692726666667,-1.0391021738333335
1518199076897.0,2.629116818333333,-8.858157326666667,-1.0950408945
1518199077099.0,2.5208099283333327,-8.862680026666668,-1.1527252195000002
1518199077299.0,2.6493499683333326,-8.837448083333335,-1.1065460201666666
1518199077500.0,2.561514275,-8.964797916666669,-1.078219605
1518199077702.0,2.4605071916666663,-9.04604791666667,-1.0699676526666666
1518199077903.0,2.6175323383333327,-8.953689516666667,-1.213980105
1518199078105.0,2.7208404449999994,-8.978524716666668,-1.2474639916666668
1518199078306.0,2.830575548333333,-8.940359450000003,-1.2392913850000002
1518199078508.0,2.9239654406666666,-8.95178525,-1.2049346960000002
1518199078709.0,2.9075408773333336,-9.058505223333333,-1.184066776
1518199078912.0,2.946975690666667,-9.113095056666666,-1.0681427046666667
1518199079113.0,3.084799178333333,-9.102542089999998,-1.018075565666667
1518199079314.0,3.0374297923333335,-9.15840149,-1.0611602823333335
1518199079515.0,2.8802459573333334,-9.182681289999998,-1.0216461223333335
1518199079716.0,2.885324084,-9.219180300000001,-1.0572723423333334
1518199079918.0,2.8758819473333332,-9.2136261,-1.1270965606666667
1518199080120.0,2.983395377333333,-9.180221549999999,-1.1585968053333333
1518199080322.0,3.0739288223333325,-9.2374298,-1.18787537
1518199080523.0,3.020687855666666,-9.337802106666665,-1.1205108666666665
1518199080724.0,3.016165149,-9.387313806666667,-0.9602325466666665
1518199080926.0,2.9378509423333328,-9.407626306666666,-0.8892974899999998
1518199081128.0,2.9168243323333325,-9.39223324,-0.9210357703333332
1518199081328.0,2.8997650056666657,-9.376840173333333,-0.9635650679999999
1518199081530.0,2.961495962333333,-9.34970394,-0.9910980269999999
1518199081732.0,2.9092864923333326,-9.369302323333333,-1.050686652
1518199081933.0,2.882864372333333,-9.320901456666668,-1.1075775206666667
1518199082135.0,2.8676299956666664,-9.335183673333333,-1.1342376766666669
1518199082335.0,2.7985992356666665,-9.400881906666665,-1.0327545213333331
1518199082536.0,2.7544036823333333,-9.395169039999999,-0.9275421213333332
1518199082737.0,2.6778350790000003,-9.398580906666666,-0.8094757113333332
1518199082939.0,2.6503814689999996,-9.432461506666664,-0.7968597446666665
1518199083141.0,2.681564332333334,-9.426351906666667,-0.7309234666666666
1518199083342.0,2.5400909390000006,-9.485147083333334,-0.7818634079999999
1518199083544.0,2.5563568089999995,-9.383505249999999,-0.8317718546666665
1518199083746.0,2.579208372333333,-9.298446649999999,-0.8846954386666666
1518199083948.0,2.5482635523333332,-9.361447149999998,-0.7972564719999999
1518199084149.0,2.5103363056666668,-9.367001349999999,-0.7471099886666667
1518199084349.0,2.4365448056666668,-9.319711316666666,-0.7186248799999998
1518199084552.0,2.4202789356666665,-9.334786983333334,-0.7748016366666665
1518199084753.0,2.436624152333333,-9.309078983333334,-0.7929718033333333
1518199084954.0,2.4314666823333333,-9.306301883333333,-0.827407838
1518199085156.0,2.3866363556666665,-9.330105583333333,-0.8620819103333333
1518199085356.0,2.4689178483333336,-9.313919049999999,-0.9352386469999999
1518199085559.0,2.5550872833333336,-9.29082945,-0.986972047
1518199085759.0,2.595632936666667,-9.304397583333335,-0.9373016369999999
1518199085962.0,2.6526824966666664,-9.30098571666667,-0.9094512969999999
1518199086163.0,2.6668853766666665,-9.320663466666668,-0.9217498803333333
1518199086365.0,2.6620452899999996,-9.317092900000002,-0.9338897716666665
1518199086566.0,2.6786285399999996,-9.313284300000001,-0.9334136983333332
1518199086767.0,2.6854522699999994,-9.3101105,-0.9339691183333333
1518199086969.0,2.6853729233333326,-9.3000336,-0.946585085
1518199087170.0,2.666250609999999,-9.290274100000001,-0.954519655
1518199087372.0,2.658395383333333,-9.288449166666666,-0.971499634
1518199087572.0,2.6583160366666663,-9.292257733333333,-0.983322143
1518199087775.0,2.6478424033333336,-9.292337083333331,-0.9722930896666667
1518199087977.0,2.65474548,-9.299636883333333,-0.9689605696666667
1518199088177.0,2.6645050033333333,-9.2936066,-0.9702300996666668
1518199088378.0,2.6733917233333333,-9.290194733333333,-0.9909393283333333
1518199088580.0,2.6878326433333335,-9.279721100000001,-1.0033172583333334
1518199088782.0,2.6952117933333333,-9.277182033333334,-1.0133941616666666
1518199088983.0,2.69822693,-9.2696442,-1.0254547083333336
1518199089184.0,2.7060028066666666,-9.274008199999999,-1.037594599666667
1518199089386.0,2.6898162866666664,-9.269961566666666,-1.055844113
1518199089587.0,2.627609254333333,-9.064376846666667,-1.1743865896666668
1518199089789.0,2.7336151076666666,-9.403421046666667,-1.414010618
1518199089991.0,2.5903961109999996,-8.930917379999999,-1.2450836113333335
1518199090192.0,2.5173187183333328,-8.662887593333332,-1.3383148113333332
1518199090393.0,2.2923736516666664,-9.042556759999998,-1.7271087533333334
1518199090595.0,1.997128295,-8.6533661,-1.5766692999999998
1518199090795.0,1.8774749749999997,-8.340188597766668,-1.5816680799999998
1518199090998.0,2.170419301666667,-8.926077264433335,-2.030129983333333
1518199091198.0,2.1199554383333337,-8.785714721099998,-2.08575132
1518199091401.0,2.174624628333333,-8.393270871099999,-1.9520538066666666
1518199091602.0,1.9253204283333332,-8.531173704433332,-2.7087737633333333
1518199091804.0,1.8032867373333332,-9.034622171099999,-3.0996306933333337
1518199092005.0,1.5112152039999995,-8.5902068811,-2.8868255166666668
1518199092205.0,1.4172698906666663,-8.309005694433333,-2.826998856666667
1518199092408.0,1.623171977333333,-8.663680994433333,-3.290853836666667
1518199092609.0,1.777737407333333,-8.870217861099999,-3.4528777633333334
1518199092809.0,1.605715924,-8.454605054433332,-3.3325896766666667
1518199093012.0,1.5846893106666666,-8.169912659433331,-3.26419368
1518199093212.0,1.3781524440000001,-8.6415435261,-3.65814511
1518199093414.0,1.2533416540000002,-8.293533269433333,-3.4544646899999996
1518199093615.0,1.2513580106666666,-8.0392303061,-3.324893156666666
1518199093816.0,1.4851104606666667,-8.461270072766666,-3.6784576099999997
1518199094018.0,1.6718902506666664,-8.822293039433333,-3.891897553333333
1518199094219.0,1.4197296073333332,-8.372244219433332,-3.873648043333333
1518199094422.0,1.343716423,-8.005905112766667,-3.8262786583333335
1518199094622.0,1.441470323,-8.273300112766666,-4.307589691666667
1518199094823.0,1.4074310163333335,-7.997732494433334,-4.169607515
1518199095026.0,1.352841173,-7.720022527766667,-4.100735445
1518199095227.0,1.1701080230000003,-7.798416094433334,-4.243478358333332
1518199095429.0,1.1739166163333337,-8.2098235611,-4.453189051666667
1518199095631.0,1.1174224753333335,-8.122543287766666,-4.289974944
1518199095831.0,1.015701288666667,-7.454690505433333,-3.8712676640000003
1518199096033.0,1.2173187186666667,-8.249417072099998,-3.642355330666667
1518199096235.0,1.2482635413333336,-8.615835525433333,-3.883804320666667
1518199096435.0,1.2634979146666665,-7.898153656766666,-3.4408172640000005
1518199096638.0,1.498281846666667,-8.0768401801,-3.6014923140000006
1518199096838.0,1.7229888766666666,-8.476028415666667,-4.016470327333333
1518199097041.0,1.2878570500000002,-7.841738882333333,-3.6175201439999998
1518199097241.0,1.3331634466666669,-7.627108755666667,-3.3640106239999996
1518199097443.0,1.25111999,-7.952029405666667,-3.482632454
1518199097645.0,1.3874359066666666,-8.122146605666666,-3.114785787333333
1518199097845.0,1.4143341000000003,-7.268228162333334,-2.676480126333333
1518199098048.0,1.7049774100000001,-7.523880019,-2.838107323
1518199098250.0,1.934365836666667,-8.305117805666665,-3.2557831029999997
1518199098450.0,1.9944305366666668,-8.308688339,-3.067813136333333
1518199098652.0,1.6175384466666665,-7.688522335666666,-2.7492401363333334
1518199098852.0,1.71330871,-7.733035275666666,-2.7796295429999995
1518199099054.0,1.9019134466666667,-8.421676637333332,-3.3535370196666667
1518199099255.0,2.1375701866666663,-7.878396590666667,-3.0838409629999997
1518199099456.0,2.197793575666666,-7.894107040666666,-3.1399383763333333
1518199099659.0,1.941586302333333,-8.341854837333333,-3.242453025666667
1518199099861.0,1.6983917123333334,-8.143649303999998,-3.0471039023333337
1518199100063.0,1.2964263790000001,-7.550857544,-2.687271139000001
1518199100264.0,1.5807220323333335,-7.863638307333334,-2.4942230390000004
1518199100465.0,1.4547210566666666,-8.200222780666666,-2.464071670666668
1518199100665.0,1.3965606566666666,-8.015744014000001,-1.8878631740000005
1518199100868.0,1.71291197,-8.285916132333334,-1.9199188373333342
1518199101068.0,1.51177062,-8.640035999,-1.8094696173333342
1518199101271.0,2.069650253333333,-8.153884869,-1.311337300666667
1518199101472.0,2.45598448,-7.336941505666667,-0.7350494573333335
1518199101674.0,2.9600677299999996,-7.224667335666665,-0.43821718166666684
1518199101876.0,3.3382293499999998,-7.151669287999999,-0.269924945
1518199102077.0,3.639504983333333,-6.431845057999998,-0.3167388950000007
1518199102278.0,4.061068703333333,-5.926809661333332,0.36769715499999983
1518199102478.0,4.644973729999999,-5.862063566666666,0.6642120483333331
1518199102681.0,5.079470797999999,-5.671395839999997,1.0271392949999998
1518199102882.0,5.350277681333332,-5.179452476666664,1.7987762449999996
1518199103083.0,5.866183441333332,-4.8281890466666635,2.1979644783333327
1518199103285.0,6.250216641333332,-4.77820125333333,2.353640748333333
1518199103487.0,6.651388514666666,-4.446139489999995,2.6934783949999996
1518199103688.0,7.137936364666666,-3.7398040266666635,3.4348846449999995
1518199103889.0,7.602664145666665,-3.690927073333331,3.7388580339999993
1518199104090.0,7.974160725666665,-3.481216376666665,4.043545534
1518199104291.0,8.213705402333332,-2.5810393800000013,4.756307983999999
