Time,AccelX,AccelY,AccelZ
1518195570275.0,2.98466492,1.012527506666667,6.719717508
1518195570476.0,3.0677398700000005,0.7482269733333333,6.385672089333333
1518195570677.0,3.0825775166666673,0.2873871400000003,5.936416709333333
1518195570879.0,3.017672730000001,0.019912773333333328,5.684573439333333
1518195571080.0,2.86183777,-0.7005462266666667,5.400436467999999
1518195571281.0,3.020291146666667,-1.5519256266666668,4.748373468
1518195571483.0,3.001327523333334,-1.6843536073333334,4.538424728
1518195571684.0,3.5299286000000007,-2.7197357073333333,4.022280927999999
1518195571886.0,3.3361663933333343,-2.795272817333333,3.7271942496666655
1518195572087.0,3.4080536033333346,-3.2821380506666666,3.1378143496666677
1518195572288.0,3.4233673233333346,-3.3222869773333334,2.807894907666667
1518195572490.0,3.533023083333334,-3.7782073773333327,2.5360565210000003
1518195572691.0,3.3894073600000008,-4.279354843999999,2.036892687666667
1518195572893.0,3.3237091166666675,-4.378457629333333,1.617629987666667
1518195573094.0,3.1258209266666674,-5.792001395999999,1.4676666010000003
1518195573296.0,3.184219363333334,-5.8489716126666655,1.1755950593333333
1518195573497.0,3.8127166733333335,-6.735977222666666,0.574868759333333
1518195573699.0,3.845407106666667,-6.777395679333333,0.2976348660000002
1518195573900.0,4.586972033333334,-7.6722565126666655,-0.21668399066666655
1518195574101.0,4.029727153333334,-7.839834639333334,-0.7421112239999998
1518195574303.0,4.574832136666667,-8.659158366,-1.4098846573333332
1518195574504.0,4.627120956666667,-8.72414249933333,-1.5976959239999997
1518195574706.0,5.3581329066666665,-9.293051171333332,-1.817959594
1518195574907.0,4.942520103333333,-9.035653718,-2.204928584
1518195575110.0,4.652828953333334,-9.168478418,-2.3542571973333333
1518195575310.0,4.422250334999999,-8.863076804666667,-2.2499175986666664
1518195575512.0,4.236025978333333,-9.265994271333334,-2.5036651586666667
1518195575714.0,4.122244241666667,-9.046365366333331,-2.4847015353333335
1518195575914.0,4.165725701666667,-9.384298717666665,-2.664340205333333
1518195576117.0,3.7232940549999998,-9.089926159000001,-2.7158355653333333
1518195576319.0,3.8024017283333333,-9.139041159000001,-2.7321807786666668
1518195576519.0,3.655691525,-9.095797759,-2.699172966
1518195576722.0,3.8546112016666667,-8.911953779000001,-2.611416619333333
1518195576922.0,3.7331329316666664,-9.123251379000001,-2.911502069333333
1518195577125.0,4.137954701666667,-8.729776022333333,-2.9282440126666662
1518195577325.0,3.9684722716666663,-8.402236955666666,-2.926181012666666
1518195577526.0,4.011160258333334,-8.478012101666666,-3.0905059626666658
1518195577727.0,3.2994292916666663,-8.802139268333333,-3.1149444459999995
1518195577929.0,3.577139251666666,-9.053744491666665,-3.131686389333333
1518195578132.0,3.414083828333333,-9.342483524999999,-3.1005035226666666
1518195578333.0,3.3037139549999988,-9.428256231333332,-3.0374236873333333
1518195578535.0,3.756301838333332,-10.291140764666666,-3.359170500666666
1518195578736.0,3.936972005,-9.842678847999998,-3.085110434
1518195578936.0,4.630294758333333,-10.575198362666663,-3.289981034
1518195579139.0,4.815725672666666,-9.246554499333334,-3.271414147333333
1518195579339.0,5.742166112666666,-9.987881382666668,-3.7389983723333335
1518195579542.0,5.011709572666666,-9.105160442666666,-3.469778415666667
1518195579743.0,5.543563839333333,-9.753256136,-3.7666106889999997
1518195579945.0,4.784384166666666,-8.895529096,-3.4835052190000004
1518195580146.0,6.270291166666666,-8.964559859333335,-3.3264007323333336
1518195580347.0,5.8005645999999995,-8.449447559333333,-3.0461516990000006
1518195580548.0,5.819052146666666,-8.767703172666666,-3.2418182023333344
1518195580750.0,5.152151523333333,-8.434768622666667,-3.213888515666668
1518195580952.0,5.446920810000001,-8.791824285999999,-3.048373382333333
1518195581153.0,5.488180576666667,-8.659078919333332,-2.7340850523333335
1518195581354.0,5.724234045,-8.993759096,-2.8767486256666666
1518195581556.0,5.757717935,-8.695101882666664,-2.745034759
1518195581758.0,6.046694988333334,-8.952975420999998,-2.7574126889999997
1518195581959.0,5.981472808333333,-8.816262771,-2.5565887156666665
1518195582159.0,6.329800445,-9.066677812999998,-2.4549468723333328
1518195582360.0,6.392880278333332,-8.955673162999997,-2.433126803999999
1518195582562.0,6.670431541666666,-9.088259829666665,-2.4811309546666656
1518195582763.0,6.675747704999999,-9.158004699666664,-2.4612151813333316
1518195582965.0,7.077395654999999,-9.032003732999998,-2.2543609326666654
1518195583166.0,7.051132234999999,-9.048825023,-2.296176117999999
1518195583367.0,7.285202065,-8.867361399666667,-1.9907745146666669
1518195583569.0,7.484677165,-9.003836006333334,-1.9599883813333334
1518195583772.0,7.886801198333332,-7.990194663,-1.7627349646666668
1518195583972.0,8.016134688333333,-8.011776696333332,-1.7990752963333334
1518195584173.0,8.320108078333334,-7.5844207296666655,-1.590951513
1518195584375.0,8.628048751666668,-7.808810376666666,-1.6723602063333334
1518195584576.0,8.285037284999998,-6.835555976666666,-1.4259918116666668
1518195584779.0,8.453567551666668,-7.142068426666666,-1.546359245
1518195584979.0,8.054458665,-6.650442459999999,-1.2666656516666666
1518195585182.0,8.282418870666667,-6.905538889999999,-1.485818475
1518195585382.0,7.5165741373333335,-6.467074556666666,-1.0679840049999998
1518195585583.0,7.847842444,-6.803024263333332,-1.0846466049999999
1518195585786.0,7.462619033999999,-6.467550643333333,-0.8616058349999998
1518195585987.0,7.673281873333332,-6.808023049999999,-1.058621215
1518195586188.0,6.8879974399999995,-6.945449803333332,-1.0453704816666667
1518195586389.0,6.962741093333333,-7.031381203333333,-1.0123626683333333
1518195586591.0,6.977499393333333,-7.0587554699999995,-0.9872894249999997
1518195586793.0,6.885537716666667,-7.128420986666665,-0.9530120816666666
1518195586995.0,6.8174591,-7.17618711,-0.9396026573333333
1518195587195.0,6.726449583333333,-7.226809676666666,-0.9411895706666666
1518195587396.0,6.644406123333334,-7.263229356666667,-0.9504730173333332
1518195587597.0,6.556253043333334,-7.31813657,-0.9695159839999999
1518195587800.0,6.354318224666667,-7.42406307,-0.9858611973333332
1518195588001.0,6.134213243333334,-7.510153153333332,-0.9831634439999999
1518195588203.0,5.9522735466666665,-7.603066953333332,-0.9762603673333331
1518195588405.0,5.782473736666668,-7.6794768699999985,-0.9722930823333331
1518195588607.0,5.551657091666668,-7.800717103333333,-1.001650992333333
1518195588808.0,5.352261338333334,-7.883077946666665,-1.0029205239999996
1518195589009.0,5.161038191666667,-7.976705879999999,-1.0150604159999999
1518195589209.0,4.952041608333333,-8.070175113333333,-1.0231536793333331
1518195589412.0,4.741458108333333,-8.161184636666665,-1.0272003093333333
1518195589613.0,4.522940041666667,-8.252828936666665,-1.0418792659999998
1518195589815.0,4.3139434549999995,-8.342330879999999,-1.0533843926666666
1518195590016.0,4.110977151666666,-8.423580880000001,-1.0475921559999999
1518195590216.0,3.8993621603333333,-8.50641778,-1.0523528993333333
1518195590419.0,3.730673197,-8.6263885,-1.2767425460000001
1518195590621.0,3.540243510333333,-8.623214676666667,-1.3837799073333334
1518195590822.0,3.343862900333333,-8.650906326666666,-1.4735198973333334
1518195591023.0,3.1935027936666667,-8.698910493333331,-1.5024810773333332
1518195591225.0,2.988156113666667,-8.794760109999997,-1.5185089106666667
1518195591425.0,2.767654401666667,-8.881405609999998,-1.5110504153333335
1518195591628.0,2.549691758333334,-9.001852376666665,-1.4432098376666669
1518195591829.0,2.346884141666667,-9.091354330000001,-1.3917144776666668
1518195592030.0,2.218185415,-9.123965429999998,-1.393380737666667
1518195592231.0,2.0475128049999998,-9.165463243333333,-1.4755828876666668
1518195592433.0,1.8353423959999997,-9.166812109999999,-1.5703216576666668
1518195592635.0,1.6964874169999997,-9.161178576666664,-1.5033538843333334
1518195592835.0,1.5523956273333328,-9.158480843333331,-1.50565491
1518195593036.0,1.4394866939999997,-9.164987176666665,-1.530014041
1518195593239.0,1.4021148606666665,-9.241000343333333,-1.5050201443333333
1518195593441.0,1.200418084,-9.271469076666667,-1.500021364333333
1518195593642.0,1.0483917183333331,-9.239413426666667,-1.5412811309999999
1518195593844.0,1.0762420603333331,-9.14483336,-1.659506231
1518195594046.0,1.0464080756666667,-9.16617736,-1.8149444576666665
1518195594246.0,0.9897552436666667,-9.15451356,-1.8263702376666666
1518195594448.0,0.9462737983333331,-9.172048960000001,-1.852554321
1518195594648.0,1.0003082233333331,-9.135629293333334,-1.8298614509999998
1518195594851.0,1.1040130566666666,-9.141897593333333,-1.8196258559999998
1518195595052.0,1.0388702353333332,-9.206326293333333,-1.795822146
1518195595254.0,1.012130733,-9.218069459999999,-1.7646392833333333
1518195595455.0,1.020541376333333,-9.209738159999999,-1.81534119
1518195595655.0,1.1128997729999999,-9.207119726666665,-1.8425567666666667
1518195595858.0,1.2412811263333334,-9.249966426666665,-1.9078582800000001
1518195596059.0,1.381881713,-9.271865826666666,-1.91714173
1518195596259.0,1.4760650610000001,-9.269247426666665,-1.9015106266666668
1518195596461.0,1.5523956276666668,-9.209500093333332,-1.639273079
1518195596664.0,1.5712799043333334,-9.299795516666666,-1.465744019
1518195596865.0,1.583023071,-9.402627533333334,-1.389096069
1518195597065.0,1.5262115476666667,-9.412783766666665,-1.405203249
1518195597267.0,1.6043670643333334,-9.330978349999999,-1.4803436289999998
1518195597468.0,1.623410033,-9.352401683333332,-1.5870636009999999
1518195597669.0,1.7105316163333335,-9.296383616666665,-1.6403045676666668
1518195597871.0,1.789242553,-9.273690749999998,-1.690292361
1518195598073.0,1.811935423,-9.299319416666666,-1.6848175076666667
1518195598275.0,1.9718963663333335,-9.304556216666665,-1.5826202403333334
1518195598477.0,2.026168828666667,-9.32820125,-1.5025604270000001
1518195598678.0,2.084805304333334,-9.32058405,-1.608010867
1518195598878.0,2.1766876273333335,-9.325027383333333,-1.6592681913333336
1518195599079.0,2.238815314,-9.316061316666667,-1.677279664666667
1518195599281.0,2.2625396806666664,-9.231161416666668,-1.729330444666667
1518195599482.0,2.444320687333333,-9.200851383333333,-1.7824920680000003
1518195599684.0,2.6086456329999996,-9.2458404,-1.7832061780000001
1518195599885.0,2.710287476333333,-9.279482966666665,-1.6929901113333334
1518195600086.0,2.881039422333333,-9.214419499999996,-1.5880157513333335
1518195600290.0,3.0545684743333332,-9.173477099999998,-1.6248321580000002
1518195600491.0,3.2019134463333327,-9.121426299999998,-1.6422882113333337
1518195600692.0,3.307601923,-9.07429493333333,-1.6735504146666667
1518195600894.0,3.3256927463333334,-9.026608166666668,-1.7284576413333335
1518195601094.0,3.511282347666666,-8.904653833333334,-1.7839996346666667
1518195601296.0,3.6737823533333325,-8.84149466666667,-1.8554901140000002
1518195601497.0,3.7956573533333327,-8.805868433333336,-1.8485076906666669
1518195601700.0,3.845883183333333,-8.757784953333333,-1.8562042239999998
1518195601900.0,3.8543731699999997,-8.666458036666667,-1.827401734
1518195602101.0,3.847787476666666,-8.602584769999998,-1.8662811273333333
1518195602303.0,3.896743776666666,-8.560134803333334,-1.9199188206666669
1518195602505.0,3.9266571066666667,-8.533633336666666,-1.9998992883333333
1518195602707.0,4.027822883333332,-8.488723670000002,-2.1067779483333333
1518195602907.0,4.156521613333333,-8.38414605,-2.1393890316666666
1518195603109.0,4.282125863333333,-8.371530083333333,-2.139944451666667
1518195603310.0,4.341317759999999,-8.40620415,-2.0917816116666668
1518195603513.0,4.469699103333332,-8.325985650000002,-2.044729605
1518195603713.0,4.518496709999999,-8.307101383333332,-2.099081412666667
1518195603914.0,4.582290656666666,-8.276235883333332,-2.1350250159999997
1518195604115.0,4.631643679999999,-8.245370383333334,-2.1760467426666668
1518195604316.0,4.608871456666666,-8.209426783333333,-2.242141713333333
1518195604520.0,4.74463195,-8.182607916666667,-2.273800646666667
1518195604721.0,4.842227163333332,-8.178243916666666,-2.276577746666667
1518195604921.0,4.915621939999999,-8.155789083333335,-2.270309436666667
1518195605122.0,4.98330382,-8.133889683333335,-2.279592883333333
1518195605324.0,5.02218322,-8.130477816666668,-2.284353626666667
1518195605526.0,5.077487176666666,-8.107705583333335,-2.2720550433333337
1518195605728.0,5.097720343333333,-8.059304703333334,-2.2500762833333336
1518195605928.0,5.113192756666667,-8.04462577,-2.259280386666667
1518195606130.0,5.120016489999999,-8.043038836666668,-2.2634063633333334
1518195606331.0,5.123825076666666,-8.043197536666666,-2.2718963533333336
1518195606533.0,5.127951053333333,-8.037960736666667,-2.274911493333333
1518195606736.0,5.132553096666666,-8.031771783333333,-2.2787200933333334
1518195606936.0,5.138424683333333,-8.029074036666668,-2.2826080333333327
1518195607138.0,5.14032898,-8.025265436666666,-2.2861785866666664
1518195607339.0,5.139932246666666,-8.027328403333334,-2.286019893333333
1518195607540.0,5.144772336666665,-8.022885056666667,-2.2822112999999997
1518195607742.0,5.144613646666666,-8.023837203333333,-2.278720086666666
1518195607943.0,5.1477874733333335,-8.020822066666666,-2.275546256666666
1518195608144.0,5.151834103333333,-8.021456833333332,-2.2749908366666665
1518195608345.0,5.160720823333333,-8.019869933333332,-2.2724517766666663
1518195608548.0,5.158816526666667,-8.02018732,-2.269119259999999
1518195608749.0,5.1600067066666675,-8.015029836666665,-2.2741180399999994
1518195608951.0,5.156991570000001,-8.013601613333332,-2.27308655
1518195609153.0,5.157229603333334,-8.014077679999998,-2.2785614033333332
1518195609354.0,5.157626329999999,-8.010824513333333,-2.27324524
1518195609555.0,5.160086049999999,-8.011856013333333,-2.27054749
1518195609757.0,5.163735953333333,-8.009634333333333,-2.2699127233333334
1518195609958.0,5.167465196666666,-7.999874833333332,-2.2722137466666665
1518195610160.0,5.149612416666665,-8.005270333333334,-2.2907806466666663
1518195610361.0,5.12612609,-8.016854799999999,-2.296731573333333
1518195610562.0,5.116287223333332,-8.031137033333332,-2.287924203333333
1518195610763.0,5.075820916666666,-8.009396299999999,-2.29054261
1518195610964.0,5.071377556666667,-8.414852866666665,-2.36227113
1518195611167.0,5.01528015,-8.039944409999999,-2.1597808966666663
1518195611367.0,4.9475189166666675,-8.227517676666665,-2.492874153333333
1518195611568.0,4.83754577,-7.939492779999998,-2.2941131633333334
1518195611771.0,4.730984483333334,-8.049545259999999,-2.2805450499999997
1518195611971.0,4.6375945933333345,-7.698361166666666,-2.0953521766666663
1518195612174.0,4.68171081,-7.821505699999999,-2.0658355766666663
1518195612374.0,4.575228883333334,-7.502853363333332,-1.9029388499999997
1518195612575.0,4.398287963999999,-7.692568929999998,-2.0101348933333334
1518195612777.0,4.249594122333332,-7.392880206666665,-1.8247833266666664
1518195612979.0,4.150491332333333,-7.727798419999999,-2.131295763333333
1518195613180.0,4.012112425666666,-7.411129719999999,-1.8777068966666666
1518195613381.0,3.8692108136666654,-7.516976886666666,-1.9748260433333333
1518195613583.0,3.661721796999999,-7.2257781566666655,-1.98228454
1518195613785.0,3.5572235069999993,-7.141830403333333,-1.8811981150000001
1518195613987.0,3.461532593666666,-7.104855306666666,-1.8099456751000003
1518195614187.0,3.3806793236666657,-6.89038386,-1.7593231151000002
1518195614388.0,3.346798713666666,-7.259024026666666,-1.8444610584333336
1518195614590.0,2.985141000333333,-6.841030863333333,-1.837161251766667
1518195614793.0,2.9806182969999995,-7.538003513333334,-1.9075408917666667
1518195614994.0,2.797409067666666,-7.16484067,-1.7221099817666667
1518195615194.0,2.5842071676666665,-7.643930036666666,-1.7439300484333333
1518195615395.0,2.442257704333333,-7.454452493333333,-1.6447479201000001
1518195615597.0,2.3385528710000005,-7.36645811,-1.8291473367666669
1518195615800.0,2.201126114333334,-7.329403666666668,-1.7721771217666669
1518195616002.0,2.110195941,-7.131198093333334,-1.7394073484333334
1518195616201.0,2.097818011,-7.418032826666666,-1.772573848433333
1518195616403.0,1.8506561443333334,-6.928549193333333,-1.6710906951
1518195616605.0,1.8136810509999997,-7.450723259999999,-1.7703521684333332
1518195616807.0,1.5366852043333328,-7.103506459999999,-1.5366790684333334
1518195617007.0,1.197323631,-7.0760528266666665,-1.2923736417666667
1518195617210.0,1.1954986776666665,-7.27767026,-1.3850494234333333
1518195617411.0,1.0871917906666664,-6.898635826666666,-1.0126007001
1518195617613.0,1.0476776306666669,-7.413430756666666,-1.350296013433333
1518195617814.0,1.0706085406666668,-7.048202494,-1.265316763433333
1518195618016.0,1.2988861173333335,-8.114370720666667,-1.3852874677666664
1518195618217.0,0.9920562806666671,-7.577438354,-1.4042510910999997
1518195618418.0,0.869070440666667,-8.779446424,-1.813198844433333
1518195618620.0,0.8393158033333336,-8.237594624000002,-1.4901824844333331
1518195618821.0,0.4854339783333337,-8.944247467333334,-1.3535491844333332
1518195619023.0,0.43854066833333355,-8.358993560666669,-0.9820526154333337
1518195619223.0,0.45679017833333346,-8.588461327333333,-1.239450078766667
1518195619426.0,0.43600160366666674,-8.593856860666667,-1.1947784454333334
1518195619626.0,0.6275421303333336,-8.650747730666666,-1.2504791321000002
1518195619828.0,0.7023651303333334,-9.292257750666668,-1.3877471971000002
1518195620030.0,0.4512359770000002,-8.863076840666668,-1.3821136522
1518195620230.0,0.2935760636666667,-10.056436220666667,-1.9314239722000002
1518195620433.0,0.09894104699999998,-9.393344150666666,-1.601504538866667
1518195620634.0,0.33919983366666673,-9.821969627333331,-1.7143341288666671
1518195620836.0,0.05601501699999993,-9.106906160666664,-1.654507468866667
1518195621037.0,0.10140075966666674,-9.253140290666664,-1.8331939922000007
1518195621238.0,0.17352600166666673,-9.096591190666665,-1.989108298866667
1518195621439.0,0.21573791833333333,-8.835781867333331,-2.010769675866667
1518195621640.0,0.3639556983333333,-9.427145417333332,-1.8640594692000003
1518195621841.0,0.33705750366666676,-9.308047517333332,-1.7715423775333337
1518195622044.0,0.22272034700000007,-9.529183990666665,-1.7495636175333336
1518195622246.0,0.10044861933333335,-9.287655657333334,-1.646652241866667
1518195622447.0,0.18907777066666662,-9.807925424,-1.6970367635333337
1518195622647.0,0.06878968333333334,-9.326376357333332,-1.5608795368666668
1518195622850.0,0.21486511846666673,-9.742623924000002,-1.756942776866667
1518195623052.0,0.4071991051333335,-9.423574857333334,-1.883261136866667
1518195623252.0,0.30873108846666675,-9.646853680666666,-1.9508636752000004
1518195623454.0,0.33562928213333343,-9.884732080666664,-1.9543548852000001
1518195623656.0,0.3116668801333334,-9.709060680666665,-1.7689239785333335
1518195623856.0,0.2501739588,-10.018985009999998,-1.8284332585333334
1518195624057.0,-0.04578550453333341,-9.351608276666667,-1.8521576242
1518195624260.0,0.05561830546666664,-9.81363831,-1.8178802792
1518195624462.0,0.1267914021333334,-8.973287943333334,-1.5185882858666666
1518195624663.0,0.16638490680000007,-9.378506443333334,-1.6931488335333333
1518195624864.0,0.5014618001333332,-9.024703943333336,-1.968795806866667
1518195625065.0,0.49281311846666653,-9.334310883333334,-1.9864105525333335
1518195625267.0,0.4550445644666666,-9.475149516666665,-1.9307892135333333
1518195625469.0,0.48106995446666656,-9.404611183333332,-1.8432709002000003
1518195625670.0,0.36427308113333334,-9.687478623333334,-1.7421051235333336
1518195625872.0,0.2641388011333333,-9.177127056666665,-1.6631561502
1518195626072.0,0.4840850878,-9.700173933333332,-1.6869598616666668
1518195626273.0,0.6262725877999998,-8.763894633333335,-1.146456915
1518195626475.0,0.7140289377999998,-9.108810403333335,-1.3431549083333336
1518195626676.0,0.7362457344666664,-9.138882436666668,-1.1974761983333333
1518195626877.0,0.9138214211333331,-9.205929536666668,-1.13003235
1518195627079.0,0.9515106311333332,-9.47499082666667,-1.1038482666666667
1518195627282.0,0.9636505224666665,-9.20608826,-0.8539886476666665
1518195627483.0,0.9639679024666665,-9.698428343333333,-0.8920745856666665
1518195627685.0,0.7979766858,-9.236715676666666,-0.7906707756666664
1518195627886.0,0.8336822538000002,-9.443331899999997,-0.8685882579999998
1518195628086.0,0.9340545671333335,-9.480386333333334,-0.8799346933333332
1518195628289.0,0.9744415314666667,-9.472610466666668,-0.8858062756666665
1518195628490.0,1.0519622834666666,-9.476815799999999,-0.8881073006666665
1518195628692.0,1.1152801541333333,-9.466580200000001,-0.8962799073333332
1518195628893.0,1.1812164323333332,-9.4657074,-0.8965179439999998
1518195629093.0,1.226284792333333,-9.452377333333333,-0.9034210206666666
1518195629294.0,1.2842071556666665,-9.443490599999999,-0.9067535406666666
1518195629497.0,1.335305789,-9.43761903333333,-0.9165924073333332
1518195629699.0,1.4014007609999999,-9.4325409,-0.9291290273333332
1518195629899.0,1.4455963189999999,-9.424844366666665,-0.9336517306666666
1518195630101.0,1.5037567189999996,-9.425955216666667,-0.936904904
1518195630304.0,1.5655670223333331,-9.421987916666668,-0.9487274123333334
1518195630505.0,1.617617802333333,-9.41992495,-0.964834589
1518195630706.0,1.6753021276666664,-9.413735983333334,-0.9726104680000001
1518195630906.0,1.7371917776666663,-9.404611216666668,-0.9767364446666666
1518195631109.0,1.788290409333333,-9.396994016666666,-0.9803863479999999
1518195631310.0,1.8393890433333329,-9.390487649999999,-0.9860198936666666
1518195631511.0,1.867874153333333,-9.39453428333333,-0.9775299036666665
1518195631713.0,1.8873931966666664,-9.394137549999998,-0.9712615946666666
1518195631913.0,1.9165130699999997,-9.390408283333334,-0.9657867413333332
1518195632116.0,1.9604705899999997,-9.389852866666669,-0.9835601779999998
1518195632317.0,1.9569793799999997,-9.386044266666667,-0.9734832746666665
1518195632518.0,1.9896698066666663,-9.383743233333334,-0.9684051489999999
1518195632720.0,1.9797515933333332,-9.398580866666668,-0.9747528056666664
1518195632921.0,1.980624393333333,-9.447854566666669,-0.9787994373333332
1518195633122.0,1.786544803333333,-9.366287173333335,-0.9572967523333332
1518195633324.0,1.781784063333333,-9.43063654,-1.3032440246666666
1518195633526.0,1.7797210766666667,-9.092623845333334,-1.1431243946666665
1518195633728.0,2.0755218600000003,-9.698110911999999,-1.2953887979999998
1518195633928.0,2.0579864580000002,-9.179904112,-1.348153692333333
1518195634129.0,2.052828988,-9.460946611999999,-1.6986236669999997
1518195634332.0,2.007125861333334,-9.106985428666666,-1.5527069203333332
1518195634532.0,2.8784210413333335,-9.917739862,-1.4069488669999999
1518195634734.0,2.6480804646666667,-9.475863652,-1.5961883736666664
1518195634935.0,2.661172508,-9.588217151999999,-1.9259491303333331
1518195635138.0,2.5798431613333332,-9.066995218666666,-1.9294403403333333
1518195635339.0,2.904446441333333,-9.407070885333333,-2.044650307
1518195635540.0,2.644509918,-8.960751305333332,-2.102652017
1518195635742.0,2.5984894079999994,-8.988522305333332,-2.331405690333334
1518195635943.0,2.3589447279999995,-8.697006178666665,-2.378378347
1518195636145.0,2.1678802746666657,-8.820230061999998,-2.451693777
1518195636346.0,2.034896874666666,-8.574734468666668,-2.476290947
1518195636548.0,1.9708648935333328,-8.587985202,-2.5832489636666662
1518195636748.0,1.8278045935333327,-8.238546735333333,-2.5708710336666662
1518195636950.0,1.6789520501999995,-8.401205435333333,-2.623873963666666
1518195637152.0,1.5881805668666664,-8.145950315333334,-2.679733336999999
1518195637352.0,1.5979400868666664,-8.136666882,-2.725912533666666
1518195637555.0,1.4065582502,-7.802383421999999,-2.616256770333333
1518195637755.0,1.1370209035333334,-7.967977888666668,-2.5974518386666663
1518195637956.0,0.9346100135333331,-7.818331905333333,-2.7341644819999993
1518195638158.0,0.8698639202000001,-7.7538238386666665,-2.773202565333333
1518195638360.0,0.6180206602000001,-7.685110471999998,-2.7627289319999995
1518195638561.0,0.4785309168666664,-7.630203255333332,-2.7405914808999996
1518195638763.0,0.38045963020000007,-7.762393222000001,-2.984976234233333
1518195638964.0,0.4150543568666666,-7.533163482000001,-2.9891815558999997
1518195639166.0,-0.05110165980000003,-8.188479642,-2.6406158775666664
1518195639367.0,-0.10600888646666673,-8.021218908666667,-2.2802276875666667
1518195639568.0,-0.4383086931333335,-8.927346853333333,-2.5924530309000002
1518195639770.0,-0.6476226598,-8.05732121,-2.3581451709
1518195639971.0,-1.0394317578,-9.553186109999999,-2.8104950275666662
1518195640173.0,-1.0418914744666667,-9.017364570000002,-2.3548126509000005
1518195640374.0,-1.2755645744666668,-9.891436853333335,-2.6735443375666668
1518195640575.0,-2.0237152244666667,-8.749176070666667,-2.7167877442333332
1518195640776.0,-2.2995208878,-10.145343047333336,-2.3335479942333337
1518195640979.0,-2.483761611133333,-9.699975624000002,-1.9529266409000001
1518195641181.0,-2.4552765044666667,-11.029174857333334,-2.2147674542333338
1518195641382.0,-2.6880768044666676,-10.368542549000002,-1.9651458675666664
1518195641582.0,-2.5520782711333343,-11.800772195666667,-2.0840850708999996
1518195641785.0,-2.4661468744666672,-11.48481761566667,-1.7471832042333335
1518195641986.0,-2.6275360211333334,-12.277005109000003,-1.8543792442333333
1518195642188.0,-2.3906890977999997,-11.894479469000002,-1.664743014233333
1518195642388.0,-2.8525604244666667,-12.631680395666669,-1.7239349075666666
1518195642589.0,-2.8553375240666665,-12.406259239000002,-1.5086700075666668
1518195642792.0,-2.9574554473999997,-12.887649605666667,-1.6312591209000002
1518195642993.0,-2.847482300733333,-12.572329782333334,-1.5812713275666666
1518195643194.0,-2.7555206340666665,-12.893997268999998,-1.6084869075666663
1518195643395.0,-2.7377471974,-13.054037552333332,-1.5987273875666663
1518195643596.0,-2.521450810733333,-13.405142278999998,-1.6910064419
1518195643799.0,-2.2291412474000003,-13.237643512333333,-1.7216338825666666
1518195644000.0,-2.0021331907333337,-13.392605662333331,-1.5627837880666666
1518195644201.0,-1.9416717640666674,-13.431961128999996,-1.4782012713999997
1518195644404.0,-1.6685638540666674,-13.506784129,-1.4803436054
1518195644606.0,-1.5099517940666667,-13.564944529000002,-1.489071632833333
1518195644807.0,-1.3737945707333332,-13.420694029,-1.2223907361666664
1518195645008.0,-1.3863311907333338,-13.604617368999998,-1.2031097301666664
1518195645209.0,-0.7037200974000004,-13.036105402333332,-1.5448516781666664
1518195645411.0,-0.5942230307333336,-13.128860535666664,-1.5657195981666665
1518195645612.0,-0.24637146739999977,-12.559475768999999,-1.389413444833333
1518195645812.0,-0.28675843406666646,-12.825125179,-1.4707427901666663
1518195646014.0,0.1765411425999998,-11.840246612333335,-0.9818939085000001
1518195646216.0,0.21526184593333314,-12.082489052333335,-1.070840441166667
1518195646417.0,0.5303436359333332,-11.562615985666667,-0.8836639278333335
1518195646619.0,0.43147889259999983,-11.891265901666666,-0.9696746688333334
1518195646821.0,0.9630157592666666,-10.935784968333333,-1.1432037221666667
1518195647022.0,1.1596344126,-11.265545724999999,-1.1681976188333334
1518195647224.0,1.2364410526,-10.457409725,-0.8823150588333333
1518195647425.0,1.1641571192666667,-10.779711966666666,-0.9981597855
1518195647627.0,1.3099151759333334,-9.794754033333334,-0.7928131105000001
1518195647827.0,1.2944427659333333,-10.080001846666667,-0.8770782471666668
1518195648029.0,1.7179901159333333,-9.575997946666668,-0.6984710738333334
1518195648230.0,1.6933929492666664,-9.830697653333335,-0.7901153605000001
1518195648431.0,2.310147089266667,-9.340261853333335,-0.6784759571666669
1518195648632.0,2.401870723333334,-9.552987676666667,-0.7612335258333335
1518195648834.0,2.676644893333334,-9.417861943333333,-0.6286468541666667
1518195649036.0,2.737979123333334,-9.5729828,-0.6061126735
1518195649237.0,2.760751343333334,-9.497445683333332,-0.5082794188333334
1518195649439.0,2.7597991966666675,-9.345101933333332,-0.45075378450000003
1518195649641.0,2.762100220000001,-9.326058966666665,-0.45051574750000006
1518195649842.0,2.7707489,-9.326693733333332,-0.4210784925
1518195650044.0,2.7642425533333332,-9.3248688,-0.42663269166666673
1518195650245.0,2.767892456666667,-9.339389066666666,-0.440756227
1518195650447.0,2.7629730200000004,-9.336294566666666,-0.4378204363333334
1518195650648.0,2.7636077833333337,-9.33018495,-0.4367095963333334
1518195650849.0,2.7545623766666676,-9.331295783333333,-0.432424928
1518195651049.0,2.7571807833333346,-9.326773083333334,-0.43337707633333333
1518195651251.0,2.7536895733333346,-9.326297016666668,-0.42821960566666667
1518195651454.0,2.7501983666666674,-9.32899475,-0.41996765233333333
1518195651655.0,2.7542449966666678,-9.331771849999999,-0.424649049
1518195651855.0,2.7428192200000012,-9.332724016666663,-0.4205230723333333
1518195652058.0,2.746151740000001,-9.3292328,-0.39164123633333336
1518195652259.0,2.7376617500000004,-9.331375133333333,-0.3890228283333333
1518195652461.0,2.73417054,-9.3339142,-0.3853729266666666
1518195652662.0,2.729647833333333,-9.337484733333334,-0.3832305923333333
1518195652864.0,2.713699346666666,-9.338040133333333,-0.37672424400000004
1518195653064.0,2.7103668266666663,-9.338754233333333,-0.37228088400000003
1518195653265.0,2.7181427033333327,-9.339785733333333,-0.37077331566666677
1518195653468.0,2.714651489999999,-9.344070399999998,-0.37918395900000007
1518195653668.0,2.694021606666666,-9.350814799999998,-0.42496643066666673
1518195653870.0,2.689022823333333,-9.282815519999998,-0.4980438273333333
1518195654071.0,2.7033050499999995,-9.242507903333331,-0.5973053006666668
1518195654274.0,2.7267913766666667,-9.155465669999998,-0.6603057906666667
1518195654476.0,2.7421050966666667,-9.16498717,-0.6283294720000001
1518195654677.0,2.72925109,-9.18149107,-0.6506256133333335
1518195654878.0,2.81280211,-9.180142203333334,-0.6027801550000002
1518195655079.0,2.7930450299999996,-9.205850203333334,-0.5889740156666667
1518195655281.0,2.7961395099999997,-9.167605586666665,-0.6422149836666667
1518195655483.0,2.77971495,-9.172207636666666,-0.7260040446666667
1518195655684.0,2.7129852150000002,-9.200296036666666,-0.7714691340000002
1518195655885.0,2.786141955,-9.168161036666667,-0.7814666923333334
1518195656086.0,2.876199328333333,-9.128964236666665,-0.8053497476666667
1518195656288.0,2.9203155383333335,-9.113174436666664,-0.8160614173333334
1518195656488.0,2.9171417116666665,-9.189822403333334,-0.8408172773333333
1518195656691.0,2.9731597716666665,-9.167684936666667,-0.8973907633333333
1518195656892.0,3.071072371666667,-9.09183045,-0.9894317783333331
1518195657093.0,3.0325103616666667,-9.099447616666664,-1.0864715709999997
1518195657295.0,3.006008895,-9.111508149999997,-1.0836944713333332
1518195657497.0,3.0625030349999998,-9.100003049999998,-1.1147979879999999
1518195657698.0,3.1011443949999995,-9.086672949999997,-1.1240020893333331
1518195657899.0,3.1439910716666666,-9.070169016666663,-1.154312147333333
1518195658100.0,3.108206158333333,-9.08445123333333,-1.2315155149999997
1518195658302.0,3.1653350649999994,-9.04096978,-1.278884900333333
1518195658504.0,3.207070905,-8.965908746666665,-1.3429962286666661
1518195658705.0,3.202786238333333,-8.931790113333332,-1.4473358286666662
1518195658906.0,3.3029998616666663,-8.885928313333332,-1.3912384169999996
1518195659107.0,3.3556060616666668,-8.857205179999998,-1.3964752336666664
1518195659309.0,3.354653915,-8.850302113333333,-1.3562469619999997
1518195659510.0,3.417178328333333,-8.858871446666665,-1.3074493553333333
1518195659713.0,3.4505035249999993,-8.792855820000002,-1.2515899796666665
1518195659913.0,3.464627061666666,-8.821975700000001,-1.2266754263333333
1518195660115.0,3.4043243283333338,-8.902908316666668,-1.2623016496666666
1518195660316.0,3.4948577783333334,-8.860061633333332,-1.1639923216666668
1518195660518.0,3.5366729649999993,-8.8088043,-1.2338165403333334
1518195660720.0,3.580947868333333,-8.774288933333334,-1.2258819703333332
1518195660921.0,3.5703949016666665,-8.7603241,-1.259762585
1518195661122.0,3.6545806916666668,-8.720968633333332,-1.2628570543333335
1518195661324.0,3.676242071666666,-8.764688099999997,-1.249606321
1518195661525.0,3.685922245,-8.68788146,-1.1730377189999999
1518195661727.0,3.8042266933333333,-8.620437593333332,-1.2447662323333333
1518195661927.0,3.7263092099999997,-8.733029126666665,-1.3164154056666666
1518195662130.0,3.60752869,-8.79380796,-1.29419861
1518195662331.0,3.5466705366666673,-8.81546936,-1.2861846940000001
1518195662532.0,3.6166534466666675,-8.72033386,-1.2367523200000001
1518195662734.0,3.5407196133333336,-8.736679093333333,-1.1566131600000003
1518195662934.0,3.50429993,-8.783334379999998,-1.0937713633333335
1518195663135.0,3.5983245800000003,-8.758895913333333,-1.0152984653333332
1518195663338.0,3.657437130000001,-8.719699146666665,-1.1071807876666666
1518195663540.0,3.6341888366666675,-8.695260646666664,-1.1823211676666667
1518195663740.0,3.611892696666667,-8.765243579999998,-1.3194305430000002
1518195663941.0,3.5804717966666675,-8.807693546666664,-1.213424683
1518195664143.0,3.620858760000001,-8.799044879999999,-1.163040163
1518195664345.0,3.619509876666667,-8.819992133333331,-1.1294769296666667
1518195664546.0,3.650930776666667,-8.870535333333331,-1.0552093514666665
1518195664749.0,3.659896843333334,-8.892910799999997,-0.9857025147999999
1518195664950.0,3.4255889800000006,-8.916793866666666,-1.2286590581333334
1518195665151.0,3.4201141266666673,-8.917349266666667,-1.2880096448000002
1518195665352.0,3.4582000733333333,-8.8931488,-1.384811401466667
1518195665554.0,3.46454773,-8.8630768,-1.4619354248
1518195665754.0,3.4996978766666667,-8.89132386,-1.5068450938000002
1518195665957.0,3.53833924,-8.916476426666668,-1.4961334238
1518195666158.0,3.63815613,-8.856173693333334,-1.3957611071333336
1518195666360.0,3.5673797599999997,-8.962179543333333,-1.4672515851333332
1518195666561.0,3.573013303333333,-8.98019101,-1.4632842984666665
1518195666763.0,3.5903900099999997,-8.984793076666666,-1.4825653051333334
1518195666963.0,3.5623016266666663,-8.975747676666668,-1.5272369371333336
1518195667165.0,3.54341735,-8.96709901,-1.5814300511333337
1518195667366.0,3.546829213333333,-8.93789981,-1.5641326878000001
1518195667567.0,3.5992767266666665,-8.982888833333332,-1.6058685264666668
1518195667770.0,3.5975311166666666,-8.999710133333332,-1.5226348831333334
1518195667970.0,3.6382354633333334,-8.906637633333332,-1.4705047531333333
1518195668172.0,3.7029815600000004,-8.8764069,-1.4897857587999999
1518195668373.0,3.76272888,-8.856491116666666,-1.5132720864666664
1518195668574.0,3.72932434,-8.862997449999998,-1.5680999671333333
1518195668775.0,3.7947052066666664,-8.852841183333332,-1.6180877604666666
1518195668979.0,3.768600473333333,-8.8707733,-1.6159454271333331
1518195669179.0,3.75653994,-8.865933233333333,-1.6255462584666664
1518195669380.0,3.7686004866666667,-8.873947166666666,-1.5644500684666665
1518195669582.0,3.77891543,-8.892038000000001,-1.494546505133333
1518195669783.0,3.802481096666666,-8.8243561,-1.371560665133333
1518195669985.0,3.837234516666666,-8.778573633333334,-1.4816925017999998
1518195670187.0,3.863259906666666,-8.759848033333334,-1.4997833217999998
1518195670389.0,3.853183006666666,-8.767861966666667,-1.5139068584666666
1518195670590.0,3.8271576199999995,-8.774288966666667,-1.5519134499999998
1518195670791.0,3.870718406666666,-8.763577300000001,-1.54508972
1518195670993.0,4.060116599999999,-8.767782600000004,-1.3906036333333334
1518195671194.0,4.063052386666667,-8.776669333333336,-1.3549774133333337
1518195671395.0,4.051547253333333,-8.794046066666668,-1.3218902566666668
1518195671596.0,4.0340118533333325,-8.7923798,-1.3072906466666667
1518195671798.0,4.022109996666666,-8.811581466666667,-1.2945953333333333
1518195672000.0,4.008700566666667,-8.816421566666666,-1.2796783400000002
1518195672201.0,3.9989410499999996,-8.823562666666666,-1.26142883
1518195672402.0,3.995608533333333,-8.826498466666667,-1.2461151099999999
1518195672605.0,3.9783905099999997,-8.8308625,-1.2367523200000001
1518195672806.0,3.9719635099999997,-8.825943066666667,-1.2242950433333335
1518195673007.0,3.9811676099999995,-8.8295136,-1.2188201900000002
1518195673209.0,3.9890228333333333,-8.828640766666664,-1.2054107666666667
1518195673411.0,4.009335333333333,-8.836733999999998,-1.2075531000000002
1518195673612.0,4.0153656,-8.8449066,-1.1903350833333333
1518195673813.0,4.017745976666666,-8.84554136666667,-1.1825592066666666
1518195674014.0,4.033139043333333,-8.834512300000002,-1.180020143333333
1518195674216.0,4.049722293333334,-8.821102900000001,-1.1839874299999997
1518195674417.0,4.055355826666668,-8.81896055,-1.1879547166666664
1518195674617.0,4.0774139300000005,-8.80975645,-1.1843841599999998
1518195674819.0,4.062814316666667,-8.808883649999999,-1.2024749799999999
1518195675021.0,3.916976913333334,-8.52554014433333,-1.1035308866666664
1518195675223.0,4.070590180000001,-8.754531827666664,-1.14241028
1518195675425.0,3.8977752400000005,-8.405331374333333,-1.1482025166666663
1518195675625.0,4.247689790000001,-8.823007141,-1.3050689733333332
1518195675827.0,3.9367339900000005,-8.381289607666666,-1.2692047153333332
1518195676029.0,4.683615103333334,-8.931948774333334,-1.4025054986666667
1518195676229.0,4.567135611666667,-8.562277151,-1.3210968086666668
1518195676432.0,4.719558711666668,-9.348672451,-1.4185333386666665
1518195676633.0,4.653146351666668,-9.05461728766667,-1.3525177139999998
1518195676835.0,4.5377777,-9.133883654333333,-1.3564056539999998
1518195677036.0,4.473348990000001,-8.970272821,-1.3893341206666665
1518195677237.0,4.3812286333333335,-8.849826034333335,-1.5416778706666665
1518195677439.0,4.440579216666666,-8.774447601,-1.541439834
1518195677640.0,4.42399596,-8.555770834333334,-1.5937286540000002
1518195677842.0,4.41606139,-8.815786701,-1.6036468673333333
1518195678044.0,4.210079946666666,-8.404696617666668,-1.6608551173333335
1518195678245.0,4.281649763333333,-8.906796251000001,-1.8729461873333335
1518195678446.0,3.9272125000000004,-8.424215684333333,-1.7982025340000005
1518195678648.0,4.488107266666667,-9.269564784333335,-2.208023080666667
1518195678849.0,4.37432553,-8.866885324333335,-2.0649627773333337
1518195679050.0,4.36639096,-9.406277424333336,-2.3041900706666674
1518195679251.0,4.282681243333334,-9.132693455000002,-2.1577179040000005
1518195679453.0,4.138034028,-9.125234988333336,-2.203897104
1518195679653.0,4.123593114666667,-9.062393188333337,-2.303396610666667
1518195679854.0,4.149935881333334,-8.91520690166667,-2.3805999773333335
1518195680056.0,4.261813324666667,-9.230130035000002,-2.5849151706666667
1518195680258.0,4.1443816846666675,-8.874819961666669,-2.671084604
1518195680459.0,4.363613868000001,-9.514981095,-2.745193490666667
1518195680662.0,4.0790801813333335,-9.061361714999999,-2.5961029140000003
1518195680864.0,3.9207061579999998,-9.670657381666663,-2.695205704
1518195681063.0,3.996798688,-9.607894930666664,-2.7304351973333336
1518195681266.0,3.6311736979999996,-9.416671780666663,-2.811367814
1518195681466.0,3.6182403479999996,-9.482687404666663,-2.7655853433333335
1518195681669.0,3.309109481333334,-8.942184487999999,-2.80874941
1518195681870.0,3.5490508813333337,-9.405722087999997,-2.840567038
1518195682071.0,2.827243014666666,-8.604092454666665,-2.8846039013333336
1518195682272.0,2.824227877999999,-9.219339044666667,-2.9967193780000003
1518195682475.0,2.3595794446666662,-8.051528944666668,-2.820413218
1518195682676.0,2.418057228,-8.832211308,-3.035281382666667
1518195682878.0,2.098294059666667,-8.345901494666666,-2.825570696
1518195683078.0,2.5718292196666668,-9.231082161333333,-2.9515716760000004
1518195683281.0,2.387747189666667,-8.940756231333333,-2.662594626
1518195683482.0,2.5536590563333337,-9.893936131333332,-3.195639062666667
1518195683682.0,2.4312286399000005,-9.780233741333333,-3.0453582993333335
1518195683883.0,2.3736236599,-9.544338974666667,-3.148587059333334
1518195684085.0,2.430752566566667,-9.793405134666667,-3.1185943860000003
1518195684287.0,2.2615081899000002,-9.000424167000002,-2.881509418666667
1518195684488.0,2.5729400799,-9.687796000333336,-3.104312155333334
1518195684690.0,1.9273834565666663,-8.472457877000002,-2.824459868666667
1518195684892.0,2.4424957599,-9.474118037,-3.0382965420000003
1518195685093.0,2.1392364798999997,-8.522842403666669,-2.6874298420000007
1518195685294.0,2.6207061965666663,-9.135073839666669,-2.8056549393333334
1518195685495.0,2.6483978469,-9.103732273000002,-2.7618561093333334
1518195685698.0,2.650540180233333,-9.206246906333334,-2.625222813666667
1518195685898.0,2.5815887635666668,-9.391043059666666,-2.5209625616666664
1518195686099.0,2.4388458402333337,-9.113650459666667,-2.2972076716666665
1518195686301.0,2.520254533566667,-9.480386299666668,-2.182711821
1518195686504.0,2.2634124902333337,-8.859347499666665,-2.087973051
1518195686705.0,2.508035290233334,-9.334628246333333,-2.213497954333333
1518195686905.0,2.6603790402333334,-8.735488846333334,-2.0689300766666667
1518195687108.0,2.7117157102333334,-9.091433669666666,-2.0991607896666666
1518195687310.0,2.9008758669,-9.084133869666665,-1.9447540518333335
1518195687509.0,3.0598053102333336,-9.376284748999998,-1.9503875968333337
1518195687710.0,3.008706683566667,-9.50593563233333,-1.7130645915000005
1518195687912.0,3.064089983566667,-9.488162198999998,-1.6819610748333336
1518195688115.0,3.0303680569,-9.748416098999998,-1.4696319738333334
1518195688316.0,3.1412140052333335,-9.509030099,-1.4076629804999998
1518195688518.0,3.4464569185666667,-9.897347965666667,-1.4574127361666667
1518195688719.0,3.4459808452333336,-9.415560865666667,-1.2797577061666667
1518195688920.0,3.873495478566667,-9.834109445666666,-1.4526519861666667
1518195689122.0,3.4612152019000004,-9.119839412333333,-1.2600799628333335
1518195689323.0,3.7365447885666674,-9.534976128999999,-1.3706085251666669
1518195689525.0,3.5246124152333342,-8.651382429,-0.8135223398333334
1518195689726.0,3.660769641666667,-8.990347285666667,-0.8845367445000001
1518195689927.0,3.7264678816666668,-8.968051152333334,-0.7414764411666668
1518195690129.0,3.889126571666667,-9.123410042333335,-0.6810150155000002
1518195690330.0,3.977438338333333,-9.419766243333333,-0.6814910895000001
1518195690531.0,4.030679305,-9.218783576666667,-0.5128021228333335
1518195690733.0,4.121292095,-9.588534566666668,-0.3536346428333334
1518195690934.0,3.7234527416666663,-9.001138333333333,-0.24953307883333328
1518195691135.0,4.029013041666666,-9.421670566666668,-0.32689514050000007
1518195691338.0,3.628317251666666,-9.0915131,-0.32165832383333337
1518195691539.0,3.7465423499999995,-9.132217433333333,-0.2853179938333333
1518195691741.0,3.7562225299999996,-9.096987966666665,-0.2927764901666666
1518195691941.0,3.7977996799999993,-9.065408366666666,-0.2928558355
1518195692143.0,3.8276336666666664,-9.034384200000003,-0.28309631416666664
1518195692345.0,3.863339233333333,-9.024227950000002,-0.28571472249999996
1518195692546.0,3.904916383333333,-9.008120783333334,-0.27944641149999994
1518195692747.0,3.940145873333333,-8.99534615,-0.2716705321666666
1518195692949.0,3.968789673333333,-8.985348583333334,-0.2738128664999999
1518195693151.0,3.9975921600000004,-8.977255333333334,-0.2755584718333332
1518195693351.0,4.027505493333334,-8.9527375,-0.2796844483333333
1518195693553.0,4.060592650000001,-8.950277783333334,-0.2809539796666666
1518195693754.0,4.078286743333334,-8.941470416666668,-0.28254089399999993
1518195693956.0,4.104470826666668,-8.933297816666666,-0.28563537633333325
1518195694158.0,4.126052853333333,-8.925283916666668,-0.2847625733333332
1518195694359.0,4.1413665733333325,-8.923379616666667,-0.2858734133333332
1518195694560.0,4.1558074933333335,-8.918539533333336,-0.2794464113333333
1518195694762.0,4.17024841,-8.913778800000001,-0.2751617433333333
1518195694963.0,4.181198110000001,-8.907034433333333,-0.276034546
1518195695164.0,4.203573596666667,-8.903622566666668,-0.26984558133333325
1518195695365.0,4.2246795566666675,-8.914096200000001,-0.2787323
1518195695566.0,4.228646846666667,-8.9212373,-0.27159118666666665
1518195695768.0,4.259115603333333,-8.911319066666668,-0.262704468
1518195695969.0,4.26792298,-8.906478966666667,-0.2700042713333334
1518195696172.0,4.240707403333333,-8.974319533333333,-0.33665466033333336
1518195696372.0,4.195321659999999,-8.916952589999998,-0.4365509003333334
1518195696573.0,4.16064759,-8.947818056666666,-0.734811387
1518195696777.0,4.123117073333333,-8.63583074,-0.617379747
1518195696977.0,4.35258486,-8.899893239999999,-0.761868271
1518195697180.0,4.154776026666666,-8.451431316666666,-0.7747222749999999
1518195697380.0,4.12994082,-8.602346850000002,-1.088851901
1518195697581.0,3.7960540999999997,-8.18356024,-1.1731170376666666
1518195697783.0,3.7569366666666664,-8.241641273333332,-1.3487884236666665
1518195697985.0,3.5254852499999996,-8.095962563333334,-1.359817477
1518195698185.0,3.5084259233333333,-8.042007476666667,-1.5499297883333334
1518195698388.0,3.17715761,-7.874191313333334,-1.8914337073333334
1518195698588.0,3.224130266666667,-7.875857546666667,-1.8057403483333334
1518195698791.0,3.302999896666667,-8.111117546666668,-2.168032831
1518195698992.0,3.26618349,-7.964010613333333,-2.1902496276666668
1518195699192.0,2.8810394566666666,-8.387319913333332,-2.016641222666667
1518195699394.0,2.9292022899999997,-8.185464456666665,-1.8668365406666667
1518195699595.0,2.4923248333333325,-8.44349669,-2.103128045
1518195699797.0,2.478121953333333,-8.223629733333333,-2.069168084
1518195700000.0,2.39853821,-8.887832633333332,-2.002835075
1518195700201.0,2.3275238099999997,-8.69470518,-1.8772308256666668
1518195700401.0,2.2215179499999995,-8.994711279999999,-2.0801971356666664
1518195700603.0,2.0859954859999994,-8.745486426666666,-1.9991851753333338
1518195700804.0,2.5085113526666665,-9.419845559999999,-2.34386291
1518195701006.0,2.403298957333333,-9.12348934333333,-2.300619502
1518195701207.0,2.682992547333333,-9.599325543333332,-2.6278411766666667
1518195701410.0,2.764559927333333,-9.27131041,-2.4619293123333335
1518195701611.0,3.4409820273333334,-9.770474243333334,-2.6467254543333336
1518195701811.0,3.1634307506666666,-9.466183479333333,-2.593960561666667
1518195702014.0,3.4916839073333334,-10.112374879333334,-3.0106048450000005
1518195702214.0,3.4393157440000004,-9.677560432666667,-2.7040130550000003
1518195702417.0,4.008224430666667,-10.269400042666668,-2.564285271666667
1518195702618.0,3.7349578273333335,-9.794119285999999,-2.2935577449999998
1518195702820.0,4.1316070106666665,-10.603762836000001,-2.6959198183333335
1518195703021.0,3.8380278939999997,-9.924166879333333,-2.420431538333333
1518195703222.0,4.2787139273333334,-10.688107302666666,-2.538021869333333
1518195703424.0,4.023776190666667,-10.086746219333332,-2.3035553293333333
1518195703625.0,4.213809150233334,-10.762216196,-2.480178869333333
1518195703825.0,4.064559880233333,-10.312564109333334,-2.188821449333333
1518195704028.0,4.3309234069,-10.737063619333332,-2.3016510359999995
1518195704230.0,4.1061370302333335,-10.368344139333333,-2.169064359333333
1518195704431.0,4.288870185233334,-10.650814852666667,-2.096780426
1518195704633.0,4.052419988566667,-10.217269942666666,-2.1767608943333334
1518195704833.0,3.800338690233333,-10.230361975999998,-1.9649078610000001
1518195705034.0,3.652358953566666,-10.09769595933333,-1.9988678210000004
1518195705237.0,3.9476836535666675,-9.750082459333331,-2.4494720876666665
1518195705437.0,3.7182952302333327,-9.631619324666664,-2.5727753043333332
1518195705639.0,4.062655596900001,-9.550766057999999,-2.4588348743333333
1518195705840.0,3.922451738566667,-9.545846624666666,-2.495333897666667
1518195706041.0,3.830807453233333,-8.922189358,-2.702743567666667
1518195706243.0,3.6113372365666665,-8.773416164666665,-2.8270782860000003
1518195706446.0,3.6192718065666667,-8.612344398,-2.633633459333334
1518195706647.0,3.5969756639,-8.768496734666666,-2.7497955660000004
1518195706848.0,3.036953695566666,-8.040579244666665,-2.3452118260000008
1518195707050.0,3.1255828475666663,-8.364865127999996,-2.3960724213333338
1518195707251.0,2.7940765142333333,-7.916641261333331,-2.089401284666667
1518195707452.0,2.6575225609,-8.250210594666665,-2.2565033346666676
1518195707654.0,1.9434905942333334,-7.758267227999999,-2.087496988
1518195707855.0,2.1563751175666668,-8.078903225333333,-2.1657318513333337
1518195708057.0,1.798287974233333,-7.441836592,-1.7523407426666668
1518195708259.0,1.8343902708999997,-7.819918872,-2.013308755
1518195708460.0,1.2872223042333333,-7.290127605333334,-2.0727386870000006
1518195708661.0,1.5572357342333332,-7.745333895333333,-2.0565521636666673
1518195708863.0,1.1534454342333333,-7.256405662000001,-1.7901092789999997
1518195709063.0,1.1892303475666666,-7.6685272520000005,-1.943960597333333
1518195709264.0,0.9188995409,-7.3603485520000005,-1.8281158716666666
1518195709467.0,1.1651092508999998,-7.822140535333334,-1.7647186549999998
1518195709668.0,1.2805572479999998,-7.578152501999999,-1.5193023899999998
1518195709870.0,1.4304412846666665,-7.982101488666666,-1.6460174766666664
1518195710070.0,1.3579193079999996,-7.712088055333332,-1.5322357413333332
1518195710272.0,1.5635040246666663,-8.145553622,-1.4939117666666664
1518195710475.0,1.6913299496666663,-8.041531388666666,-1.2506378266666665
1518195710676.0,1.8394683796666662,-8.483724998666666,-1.2782501316666663
1518195710876.0,1.9820526079999996,-8.241165198666666,-1.1469329969999997
1518195711077.0,2.1262237513333333,-8.532046548666665,-1.1119415436666666
1518195711278.0,2.189541621333333,-8.457620281999999,-0.8624786403333333
1518195711482.0,2.339187618,-8.785873456666666,-0.9127044703333332
1518195711682.0,2.4009979179999994,-8.613296539999999,-0.8162994403333332
1518195711883.0,2.5181121763333327,-8.846176179999999,-0.833517458
1518195712084.0,2.658236688333333,-8.816342213333334,-0.7127532980000001
1518195712287.0,2.912142938333333,-9.167367593333331,-0.7343353296666667
1518195712488.0,2.982205195,-9.035653726666666,-0.7458404573333334
1518195712690.0,3.1063812216666666,-9.137295593333334,-0.7286224406666668
1518195712892.0,3.2179412800000002,-9.201010183333334,-0.8023345983333334
1518195713092.0,3.2041351233333337,-9.183236750000003,-0.8110626250000001
1518195713294.0,3.208181756666667,-9.164431816666667,-0.8116180450000002
1518195713495.0,3.21072082,-9.157370049999997,-0.8114593536666668
1518195713697.0,3.2165924,-9.156100516666667,-0.8172515903333335
1518195713898.0,3.220321646666667,-9.155783116666665,-0.8091583286666668
1518195714098.0,3.2186553900000003,-9.158084133333332,-0.8036834753333335
1518195714301.0,3.2280975266666667,-9.161495999999998,-0.7933685330000002
1518195714503.0,3.2396026600000005,-9.161099266666664,-0.7909088163333335
1518195714703.0,3.2446807800000004,-9.162130766666666,-0.7921783463333335
1518195714904.0,3.257058713333333,-9.168002366666666,-0.7832122810000002
1518195715107.0,3.2561859099999997,-9.172287033333332,-0.7824981693333335
1518195715307.0,3.2521392799999993,-9.170462066666666,-0.7863067630000002
1518195715510.0,3.258328246666666,-9.164352466666665,-0.7887664796666669
1518195715712.0,3.256741333333333,-9.16101993333333,-0.7922576913333336
1518195715912.0,3.2665008533333326,-9.157608066666665,-0.7945587166666669
1518195716114.0,3.269912719999999,-9.159671066666663,-0.7982879653333335
1518195716316.0,3.2739593533333324,-9.158163499999999,-0.793606569
1518195716516.0,3.260073856666666,-9.158163499999999,-0.7832122813333335
1518195716718.0,3.2657867433333325,-9.155069,-0.7753570563333334
1518195716919.0,3.261422726666666,-9.156100499999999,-0.772500611
1518195717122.0,3.263406366666666,-9.156814600000002,-0.768215942
1518195717322.0,3.2572967466666665,-9.164431766666667,-0.7613922120000001
1518195717524.0,3.25277404,-9.168478383333332,-0.7563934333333333
1518195717725.0,3.22309875,-9.170065299999997,-0.8264556900000001
1518195717926.0,3.2079437200000007,-9.09690856,-0.9021514909999999
1518195718128.0,3.20334167,-9.071359226666667,-0.984671021
1518195718330.0,3.17715759,-9.061044293333333,-1.032278441
1518195718531.0,3.130184933333333,-9.080087259999997,-1.0275176990000001
1518195718733.0,3.0870208699999995,-9.090957593333332,-1.0234710673333332
1518195718933.0,3.0996368366666665,-9.102383393333332,-0.9822113016666666
1518195719136.0,2.9811737046666664,-9.131265226666669,-0.9753082263333334
1518195719338.0,2.9886321980000004,-9.090243483333335,-1.0267242429999999
1518195719539.0,2.9361846879999995,-9.076278650000003,-1.0901214609999998
1518195719739.0,2.909286494666666,-9.056283516666669,-1.1892242443333334
1518195719940.0,2.8559661813333332,-8.999472,-1.249765016
1518195720141.0,2.878421014666667,-9.004629483333332,-1.2989593513333333
1518195720345.0,2.910556031333334,-9.023275716666666,-1.3317291279999999
1518195720546.0,2.933566281333334,-9.03025815,-1.3086395283333332
1518195720747.0,2.905953981333334,-9.069692983333333,-1.307052615
1518195720949.0,2.9374542246666673,-9.098336783333332,-1.3472808883333331
1518195721150.0,2.9393585213333338,-9.045333849999999,-1.4435272283333331
1518195721350.0,2.9276153580000006,-9.021133416666666,-1.5729400703333332
1518195721553.0,2.9245208746666673,-8.985031116666665,-1.6383209303333333
1518195721754.0,2.9757781980000004,-9.00677185,-1.6920379703333333
1518195721955.0,2.9960113513333333,-9.007882683333333,-1.708303838333333
1518195722156.0,3.026718141333333,-8.990823350000001,-1.6842620896666665
1518195722357.0,3.0336212146666663,-9.038430783333334,-1.677279667333333
1518195722560.0,3.0993194580000005,-9.076437383333332,-1.693862918333333
1518195722761.0,3.129153444666667,-9.03367006,-1.7321868933333329
1518195722963.0,3.0554412896666663,-9.054299926666665,-1.7532928499999996
1518195723163.0,3.0655181963333336,-9.020816059999998,-1.6974334756666665
1518195723364.0,3.081546029666667,-9.024545326666665,-1.663632206333333
1518195723566.0,3.1216156096666667,-9.019705259999997,-1.6441925089999998
1518195723769.0,3.165652476333334,-9.016928159999997,-1.5271575956666665
1518195723969.0,3.1650177096666674,-9.143405216666665,-1.462014772333333
1518195724170.0,3.1451812830000003,-9.149038783333332,-1.4088531523333332
1518195724372.0,3.1812042296666667,-9.090878383333331,-1.5098602323333332
1518195724573.0,3.1772369430000005,-9.168399149999999,-1.6078521766666667
1518195724776.0,3.2549957330000003,-9.173635983333332,-1.5949188273333328
1518195724977.0,3.2290496896666676,-9.12031566,-1.6602996853333332
1518195725179.0,3.379647835000001,-9.072946293333333,-1.640621964
1518195725380.0,3.437887575000001,-9.151260503333331,-1.5473907606666668
1518195725580.0,3.5696807883333337,-9.235525636666665,-1.4962921273333332
1518195725783.0,3.606417848333334,-9.205532969999998,-1.4183746439999996
1518195725983.0,3.684414675,-9.231082286666666,-1.425912484
1518195726185.0,3.6431549083333334,-9.164035153333332,-1.3875091640000001
1518195726386.0,3.629666131666667,-9.145626953333332,-1.4134552073333333
1518195726587.0,3.6405364950000005,-9.131027319999998,-1.4352752750000002
1518195726789.0,3.6853668150000005,-9.11285715333333,-1.3801300116666668
1518195726990.0,3.6615631050000004,-9.083181853333333,-1.3620391916666668
1518195727192.0,3.6994903483333337,-9.121902553333333,-1.2519073539999999
1518195727393.0,3.6864776483333332,-9.141738986666669,-1.1331268373333332
1518195727595.0,3.6589446883333334,-9.301620586666667,-1.1425689739999998
1518195727798.0,3.716152941666667,-9.281784153333335,-1.0607635544333331
1518195727999.0,3.7237701350000005,-9.279879853333334,-1.083139044433333
1518195728200.0,3.7509063650000005,-9.28226022,-1.127810676433333
1518195728400.0,3.7913726750000003,-9.218624953333334,-1.1555023264333333
1518195728602.0,3.782406611666667,-9.169430619999998,-1.1443939297666665
1518195728805.0,3.8014495816666667,-9.188076859999999,-1.1242401197666667
1518195729006.0,3.9269744833333333,-9.147451859999999,-1.138125619766667
1518195729206.0,3.9542694033333334,-9.16950996,-1.1985076997666668
1518195729409.0,3.9944183300000002,-9.148562693333332,-1.2253265474333332
1518195729609.0,3.99775085,-9.137057559999999,-1.2472259614333332
1518195729812.0,4.025442506666667,-9.121267759999999,-1.290469371433333
1518195730013.0,4.092489626666666,-9.057632493333333,-1.2786468624333331
1518195730213.0,4.16286927,-9.057632493333331,-1.250003062433333
1518195730416.0,4.208651736666667,-9.108889826666665,-1.1026580924333333
1518195730617.0,4.307595836666667,-8.991537526666665,-1.0031585791000002
1518195730819.0,4.328543099999999,-8.952261393333334,-1.0272796734333334
1518195731019.0,4.383053596666666,-8.971701083333334,-1.0071258667666667
1518195731221.0,4.40106507,-8.966543583333333,-1.0330718987666665
1518195731423.0,4.388528456666666,-8.909176650000001,-1.0765533444333333
1518195731624.0,4.362185683333333,-8.818643183333336,-1.0707611077666666
1518195731826.0,4.400430313333333,-8.852127083333334,-1.0467193611
1518195732028.0,4.42613832,-8.867202766666667,-0.9763397244333335
1518195732228.0,4.493423476666666,-8.907193,-0.9668975861000001
1518195732429.0,4.521194473333333,-8.888308733333334,-0.9055633594333333
1518195732630.0,4.580068983333334,-8.898306300000002,-1.0220428461
1518195732833.0,4.610696429999999,-8.860537733333334,-1.0623504627666667
1518195733035.0,4.648703023333334,-8.818801899999999,-1.0128387427666665
1518195733236.0,4.6629059066666665,-8.833163466666667,-0.9928436257666665
1518195733438.0,4.722970606666666,-8.827212533333332,-0.9500762907666666
1518195733639.0,4.789541653333333,-8.699148566666667,-0.8543060284333333
1518195733840.0,4.725589009999999,-8.6830414,-0.8587493877999999
1518195734042.0,4.706307996666666,-8.6866913,-0.7969390844666665
1518195734243.0,4.645449843333332,-8.696847566666667,-0.7736907921333331
1518195734445.0,4.607601943333332,-8.708114666666667,-0.7340179414666665
1518195734646.0,4.54650575,-8.725570733333333,-0.6882354698
1518195734847.0,4.498977673333333,-8.753421083333333,-0.6472930881333333
1518195735049.0,4.525399793333333,-8.76675115,-0.5230377148
1518195735250.0,4.507626356666666,-8.779843183333334,-0.5062164248000001
1518195735452.0,4.472317516666667,-8.797933983333332,-0.49669494046666685
1518195735653.0,4.458749399999999,-8.802615383333334,-0.47582702080000017
1518195735855.0,4.43129578,-8.815707416666669,-0.4557525571333334
1518195736056.0,4.411141969999999,-8.82324526666667,-0.43567809413333336
1518195736257.0,4.387100216666666,-8.838479633333334,-0.4116363464666667
1518195736459.0,4.355599979999999,-8.848080466666667,-0.3871185249333334
1518195736660.0,4.3283843966666655,-8.864266999999998,-0.3668060255000001
1518195736862.0,4.297439573333332,-8.87973943333333,-0.3376068060666667
1518195737062.0,4.2744293199999985,-8.894180366666665,-0.3141204774
1518195737264.0,4.2497527999999996,-8.907193066666666,-0.2902374207333333
1518195737465.0,4.217855826666667,-8.926156666666667,-0.2785736023999999
1518195737666.0,4.1927032366666666,-8.940914966666666,-0.2500884946
1518195737868.0,4.17048644,-8.948611499999998,-0.23088683493333326
1518195738069.0,4.14969786,-8.965988216666663,-0.21470031093333328
1518195738272.0,4.124624616666667,-8.98217475,-0.20549620926666667
1518195738473.0,4.1038360433333345,-8.991458183333332,-0.19113463626666666
1518195738675.0,4.032107530000001,-8.978445483333331,-0.0542633046
1518195738876.0,3.992990096666667,-8.993600516666666,-0.06291198593333333
1518195739076.0,3.9892608466666677,-8.967178393333333,-0.10226745460000002
1518195739278.0,4.228646830000001,-9.220767293333333,-0.3351470926
1518195739480.0,3.9927520533333336,-8.67574166,-0.42433166426666663
1518195739682.0,4.333859240000001,-9.338833693333333,-0.6902191032666667
1518195739883.0,4.013778673333333,-8.89505316,-0.7907501101333332
1518195740083.0,4.617440786666666,-9.36414496,-0.8136016734666666
1518195740286.0,4.439627063333333,-9.033273368666665,-0.7947173961333333
1518195740488.0,4.603475946666666,-9.427859535333331,-1.1421722334666664
1518195740689.0,4.51683044,-9.078183005333331,-1.1998565584666665
1518195740890.0,4.984017959999999,-9.697634905333333,-1.4843108934666667
1518195741091.0,4.582131973333333,-9.285116612000001,-1.4455108468
1518195741293.0,4.741537496666667,-10.011050445333336,-1.8364471401333329
1518195741495.0,4.44954531,-9.501413012,-1.612533566133333
1518195741696.0,4.648147593333334,-10.130862478666666,-1.7329010011333328
1518195741897.0,4.501040660000001,-9.648043878666664,-1.6124542247999996
1518195742098.0,4.843734760000001,-10.489901795333331,-1.9405486967999996
1518195742300.0,4.50000918,-10.143478451999997,-1.7668609511333329
1518195742501.0,4.573800683333333,-10.963119551999995,-1.7966949359999997
1518195742702.0,4.410189843333334,-10.525766018666664,-1.7082244754333331
1518195742904.0,4.381308006666667,-11.150613418666666,-1.5189849748666664
1518195743105.0,4.147476216666666,-10.701992805333333,-1.3635467501999994
1518195743308.0,4.182150296666666,-10.987240638666668,-1.8904022081999996
1518195743509.0,3.9822784700000007,-10.611618092000002,-1.746865830866666
1518195743711.0,4.007589746666667,-10.552584902000003,-1.8204986419999996
1518195743911.0,3.929830956666668,-10.210287525333335,-1.7100494249999998
1518195744113.0,3.9113434166666674,-10.044137615333334,-1.7715423456666664
1518195744315.0,3.8183502533333344,-9.975503582000002,-1.8481902956666665
1518195744516.0,3.757809480000001,-9.719296308666667,-1.8622344853333332
1518195744718.0,3.808114653333334,-9.744924975333335,-2.0199737503333335
1518195744918.0,3.7697113300000007,-9.504269451999999,-2.0460784856666665
1518195745119.0,3.8816681200000005,-9.705966241999999,-2.1732696469999997
1518195745322.0,3.4821625080000005,-9.150149564,-1.9784759469999995
1518195745524.0,3.7744720846666673,-9.999307263999999,-2.179855337
1518195745725.0,3.3031585980000004,-9.023117073333335,-2.0095794703333336
1518195745925.0,3.9368927313333333,-9.901474006666668,-2.0608367936666667
1518195746128.0,3.1436737313333327,-9.057235723333335,-2.0611541756666667
1518195746329.0,3.4778778346666663,-9.953128048000002,-2.286495972
1518195746531.0,2.9686371013333326,-9.115158091333333,-2.0059295619999995
1518195746732.0,3.087973038,-10.080874654666665,-2.0290191619999995
1518195746933.0,2.5106536817333334,-9.071835344666667,-1.6334014953333331
1518195747135.0,2.8378753617333325,-9.770394904666666,-2.0479828053333335
1518195747337.0,2.631100455066666,-8.807931531333335,-1.5853973420000005
1518195747538.0,2.8745330717333326,-9.215609748,-1.81200867
1518195747739.0,2.6089630150666667,-8.414376828000002,-1.7142547600000002
1518195747940.0,2.7627349884,-8.658682254666667,-1.88135681
1518195748141.0,2.5252532884000005,-7.993923954666665,-1.70251161
1518195748343.0,2.8021697884000005,-8.018521122666666,-2.0720245433333333
1518195748545.0,2.9313445884,-7.634011856,-2.1770782533333333
1518195748747.0,2.7347259384,-7.654403705999999,-2.229525763333333
1518195748948.0,2.8254180784000003,-7.6979644726666665,-2.6056243933333327
1518195749148.0,2.8760406384000006,-7.758743282666666,-2.8018463099999997
1518195749351.0,2.6050750583999998,-7.750015249333332,-2.3255340633333335
1518195749552.0,2.7869354083999998,-7.996939079333331,-2.55436707
1518195749754.0,2.8779449317333334,-8.113656602666666,-2.55254212
1518195749954.0,2.9445953217333334,-8.458889745999999,-2.7185333299999996
1518195750156.0,2.9829986417333334,-8.596554555999997,-2.7090118433333332
1518195750357.0,3.0883697350666663,-8.647732522666665,-2.67227478
1518195750558.0,3.160574328399999,-8.890133645999999,-2.683145141333333
1518195750760.0,3.1592254450666664,-8.837527446,-2.5711883479999997
1518195750962.0,3.232778911733334,-9.043905619333332,-2.5740447946666665
1518195751163.0,3.1279632350666664,-8.882595785999998,-2.4685943546666667
1518195751364.0,3.3069671470666666,-9.143008383999998,-2.465579218
1518195751565.0,3.2724517604,-8.824435400666665,-2.223733518
1518195751768.0,3.4163848670666663,-9.117300391333332,-2.165176388
1518195751968.0,3.120822133733333,-8.662966891333332,-2.0848785346666667
1518195752171.0,3.356161493733333,-9.012167341333331,-2.0997955259999994
1518195752371.0,3.2417449904,-8.427627541333331,-1.9229339559999998
1518195752572.0,3.6182403570666666,-8.860061631333332,-1.895242306
1518195752775.0,3.639743037066667,-8.220059164666665,-1.8717559793333332
1518195752977.0,3.796054073333333,-8.586874341333333,-2.0141021726666666
1518195753177.0,3.83755188,-8.291470308,-1.7365508903333333
1518195753378.0,3.9124542200000003,-8.510067714666665,-1.8308135869999997
1518195753580.0,3.9860870333333334,-8.586398264666665,-1.856362902333333
1518195753783.0,4.071224973333333,-8.74834285133333,-1.8666778456666664
1518195753984.0,4.094631953333333,-8.974716157999998,-1.8504119756666664
1518195754184.0,4.00743103,-8.786190758,-1.7321868756666663
1518195754385.0,4.095187376666667,-9.093179283333335,-1.568972772333333
1518195754586.0,3.911264043333333,-8.64797055,-1.4701080256666668
1518195754788.0,4.2919647266666665,-9.049063066666665,-1.5429473823333333
1518195754991.0,4.250228886666666,-8.368673699999999,-1.393460079
1518195755192.0,4.453195193333333,-8.744534303333333,-1.387112422333333
1518195755393.0,4.707894903333334,-8.458096303333333,-1.3730682356666666
1518195755594.0,4.7559784,-8.567672720000001,-1.3088775623333333
1518195755796.0,4.662826543333334,-8.497134386666668,-1.2741241456666668
1518195755998.0,4.694247443333333,-8.480075086666668,-1.2515106189999998
1518195756200.0,4.697024543333333,-8.489120486666664,-1.2250885023333333
1518195756400.0,4.7125763,-8.489041153333334,-1.2127105756666665
1518195756603.0,4.723367313333334,-8.492056303333333,-1.218820194333333
1518195756804.0,4.693374646666666,-8.51125797,-1.2080291776666665
1518195757005.0,4.6971038966666665,-8.526016286666668,-1.1943817176666665
1518195757207.0,4.693295306666666,-8.532125920000002,-1.1742279109999998
1518195757407.0,4.669729626666667,-8.5534699,-1.1805755676666665
1518195757610.0,4.662033093333334,-8.56013495,-1.1739105276666664
1518195757812.0,4.6577484233333335,-8.567196716666666,-1.161691291
1518195758013.0,4.639340213333333,-8.582431116666667,-1.118130501
1518195758213.0,4.630850219999999,-8.582193083333333,-1.1113067709999997
1518195758414.0,4.640371709999999,-8.586319083333333,-1.0972625809999998
1518195758615.0,4.6494171166666645,-8.580526849999998,-1.090042121
1518195758817.0,4.654336549999997,-8.57719435,-1.0834564276666667
1518195759019.0,4.658859253333331,-8.576083516666664,-1.0895660476666666
1518195759220.0,4.6720306366666655,-8.569497816666665,-1.09305726
1518195759421.0,4.679965203333332,-8.562674083333333,-1.0926605299999999
1518195759624.0,4.690042106666666,-8.561959983333333,-1.0881378266666666
1518195759824.0,4.695596306666667,-8.557516616666664,-1.084408576666667
1518195760026.0,4.7000396733333325,-8.554342783333333,-1.0856781100000001
1518195760228.0,4.709402463333333,-8.551645016666667,-1.0837738099999998
1518195760428.0,4.7165435833333325,-8.550613533333333,-1.0852020333333334
1518195760631.0,4.725747683333334,-8.5490266,-1.0827423166666668
1518195760833.0,4.731063840000001,-8.547836433333334,-1.0736969066666668
1518195761035.0,4.737966923333334,-8.550851566666667,-1.0656829900000002
1518195761236.0,4.745266723333334,-8.541409433333335,-1.0559234683333332
1518195761437.0,4.7625640800000015,-8.5392671,-1.0401336716666667
1518195761638.0,4.78739928,-8.532364033333332,-1.0210907036666668
1518195761839.0,4.800729359999999,-8.525699,-0.9933990519999997
1518195762041.0,4.814614856666666,-8.525778333333333,-0.9693573046666665
1518195762243.0,4.8211212099999985,-8.524032733333332,-0.947933964
1518195762444.0,4.814535509999999,-8.52823803333333,-0.9310333273333333
1518195762646.0,4.775973496666665,-8.537521466666664,-0.9442840606666666
1518195762846.0,4.770577986666667,-8.526571766666667,-0.9123077423333332
1518195763047.0,4.775338726666667,-8.527444566666667,-0.88961487
1518195763250.0,4.77470396,-8.530300999999998,-0.8677948010000001
1518195763451.0,4.772799663333335,-8.534744366666665,-0.8385955810000001
1518195763652.0,4.776132183333334,-8.538235566666664,-0.8085235603333334
1518195763853.0,4.777560400000001,-8.537124733333332,-0.7886871336666667
1518195764055.0,4.741299410000001,-8.506259233333333,-0.7188629169999999
1518195764257.0,4.912130710000001,-8.954007033333333,-0.692837527
1518195764457.0,4.66266781,-8.609964056666666,-0.774246217
1518195764659.0,4.800173903333334,-8.650747723333334,-1.1039276036666665
1518195764861.0,4.561343343333334,-8.309005776666668,-1.012045277
1518195765062.0,4.718685859999999,-8.482217443333335,-1.1582000636666665
1518195765264.0,4.576498359999999,-8.206173738333334,-1.1304290663333332
1518195765465.0,4.5344451433333335,-8.188876385,-1.2497650029999998
1518195765667.0,4.221743726666666,-8.035104418333333,-1.1395538196666664
1518195765867.0,4.092568922,-8.102389585000001,-1.061556993
1518195766069.0,3.8160491386666666,-8.143887385000001,-1.318716403
1518195766272.0,3.7693938719999998,-7.9808319816666655,-1.300863621
1518195766472.0,3.5897551919999997,-8.270681815,-1.1768462876666668
1518195766674.0,3.6035613419999994,-7.985672055733332,-0.9962554743333332
1518195766874.0,3.3917083186666663,-8.621310455733333,-1.4180572276666668
1518195767075.0,3.3153777453333335,-8.334951800866666,-1.3558501976666666
1518195767279.0,3.193820135333333,-9.180380267533334,-1.6056304593333333
1518195767480.0,3.022433423,-8.664871234199998,-1.8326385226666666
1518195767682.0,2.9878387030000004,-8.598617567533333,-2.2605499106666667
1518195767883.0,2.650619466333333,-8.230056780866667,-2.3524322356666665
1518195768084.0,2.562149009666667,-8.504037480866666,-2.449472029666667
1518195768286.0,2.4266265416666672,-8.214743036533333,-2.4351898030000005
1518195768487.0,2.389175375,-8.358041403199998,-2.6134002530000005
1518195768689.0,2.116702231666667,-8.028280659866665,-2.573568709666667
1518195768889.0,2.115115318333333,-8.218075559866666,-2.641091904666667
1518195769090.0,1.9540435417333335,-8.005111679866665,-2.6862396103333337
1518195769292.0,1.9310332850666672,-7.927114859866665,-2.782168566
1518195769494.0,1.5792937817333337,-7.888552859866666,-2.941336049333333
1518195769696.0,1.397592121733334,-7.980673226533332,-2.9741058233333333
1518195769897.0,1.3509368550666672,-8.149679559866666,-3.3604400500000002
1518195770097.0,1.3986236217333334,-8.033914183199999,-3.3680572366666666
1518195770300.0,1.0170501350666663,-7.559268173199998,-3.660842886666667
1518195770502.0,1.1983550684,-7.982577483199998,-3.6018890299999993
1518195770703.0,0.9310394060666667,-7.875698833199999,-3.3932891866666663
1518195770903.0,1.2021636660666666,-8.101119979866665,-3.5131805466666663
1518195771106.0,0.8908904860666668,-7.8481658798666665,-3.5259552033333326
1518195771307.0,0.9128692460666668,-8.1649139182,-3.569912723999999
1518195771509.0,1.0310943427333332,-8.2045074382,-3.537142950666666
1518195771710.0,1.3411773527333333,-8.357565304866666,-3.6400543286666664
1518195771910.0,1.4834441973999999,-8.279885838199998,-3.7459014986666666
1518195772113.0,1.7751190040666667,-8.2319610382,-3.5059601053333336
1518195772314.0,1.8376434140666669,-8.396524024866666,-3.5246856906666664
1518195772515.0,2.0253753474000002,-8.088742058200001,-3.6503692840000004
1518195772716.0,2.008554064066667,-8.374703984133333,-3.8324676673333333
1518195772917.0,2.2329437140666673,-7.731686417466667,-3.419235250666667
1518195773119.0,2.319113154066667,-8.003048722333334,-3.4948517040000002
1518195773322.0,2.4538421640666668,-7.155160522333333,-3.2655426340000004
1518195773522.0,2.6323699964,-7.653848255666667,-3.0724151873333336
1518195773724.0,2.667202759733333,-7.710739122333334,-2.6810028240000006
1518195773925.0,3.0124359164000003,-8.069778442333334,-2.633157364
1518195774126.0,3.1042388964,-7.787307742333333,-2.570712297333334
1518195774328.0,3.2546783477333334,-8.059225453333333,-2.625302141333334
1518195774529.0,3.3152191144,-7.902200286666666,-2.4729583913333335
1518195774731.0,3.6475982577333337,-8.210934429999998,-2.5105682546666666
1518195774932.0,3.6737823377333334,-8.01645813,-2.485415664666667
1518195775135.0,3.8494537243333333,-8.213235476666664,-2.477957168
1518195775336.0,3.896267691,-8.274569696666665,-2.418923964666667
1518195775537.0,4.271810904333334,-8.293453963333333,-2.3063324080000003
1518195775738.0,4.472872914333334,-8.181893896666667,-2.3168060413333333
1518195775939.0,4.538015737666668,-8.00066833,-1.971414198
1518195776140.0,4.549758904333333,-8.133731073333331,-2.0557586813333333
1518195776342.0,4.783749391000001,-8.148568716666666,-1.8044708346666667
1518195776545.0,4.875393677666667,-8.051211549999998,-1.794870004666667
1518195776745.0,5.026864623333333,-8.103103633333333,-1.685928354666667
1518195776947.0,5.00996399,-8.209506216666668,-1.6700592146666668
1518195777149.0,5.18333435,-8.274728383333334,-1.5223968580000005
1518195777350.0,5.317031859999999,-8.220217883333333,-1.5195404113333335
1518195777551.0,5.259902953333333,-8.185861183333333,-1.4453521780000005
1518195777753.0,5.2796600333333314,-8.172689783333334,-1.4670929000000004
1518195777955.0,5.2873565666666655,-8.171182216666667,-1.4483673133333335
1518195778155.0,5.288705443333333,-8.162136783333333,-1.4444000266666668
1518195778357.0,5.289260866666665,-8.149362133333332,-1.458126833333333
1518195778559.0,5.297116093333331,-8.1526153,-1.4679657
1518195778759.0,5.316873169999998,-8.138333066666668,-1.4800262466666665
1518195778961.0,5.32718811,-8.134762533333333,-1.4898651133333332
1518195779163.0,5.336709586666666,-8.130874583333334,-1.49510193
1518195779364.0,5.342422469999999,-8.124288883333334,-1.4951812766666666
1518195779565.0,5.347341903333332,-8.128018149999999,-1.4902618433333332
1518195779766.0,5.346469093333333,-8.12611385,-1.4861358666666666
1518195779968.0,5.3506744133333335,-8.12563775,-1.4832000766666664
1518195780171.0,5.35845029,-8.121432449999999,-1.4812164333333335
1518195780371.0,5.360671973333333,-8.12452695,-1.4799469033333332
1518195780572.0,5.361941506666667,-8.121987883333333,-1.4820892366666665
1518195780773.0,5.364559923333333,-8.118337983333333,-1.4851043733333333
1518195780976.0,5.369320666666667,-8.118337983333333,-1.4860565233333336
1518195781178.0,5.3720184233333335,-8.116909749999998,-1.4849456833333332
1518195781378.0,5.369796746666665,-8.117306483333332,-1.4889129666666665
1518195781579.0,5.365591426666666,-8.120639016666665,-1.4867706333333333
1518195781782.0,5.363766476666666,-8.127859483333332,-1.5004974399999997
1518195781983.0,5.378286739999999,-8.113418549999999,-1.5953155499999998
1518195782185.0,5.369161986666666,-8.063034029999999,-1.6633941633333331
1518195782386.0,5.381381219999999,-8.078189063333333,-1.74781799
1518195782586.0,5.333139033333333,-8.123733496666667,-1.6711700399999998
1518195782789.0,5.3338531499999995,-8.13436583,-1.6533172566666665
1518195782990.0,5.321554573333333,-8.148568713333333,-1.6111846866666666
1518195783191.0,5.3106842133333325,-8.182766713333335,-1.563259884
1518195783392.0,5.362973026666666,-8.189193713333333,-1.5608001673333336
1518195783593.0,5.344247443333334,-8.166818213333334,-1.5865875206666669
1518195783796.0,5.2936248866666675,-8.158883646666668,-1.6176910373333335
1518195783996.0,5.279183963333333,-8.125717156666669,-1.7181426973333334
1518195784197.0,5.290847780000001,-8.134286490000001,-1.619515990666667
1518195784399.0,5.281484979999999,-8.124764990000001,-1.6007110596666667
1518195784600.0,5.2929901,-8.118179290000002,-1.6161041263333336
1518195784802.0,5.306558213333333,-8.120559656666668,-1.5807952880000002
1518195785003.0,5.278231796666667,-8.190463206666667,-1.5676239013333335
1518195785205.0,5.28592833,-8.175070150000002,-1.5904754680000002
1518195785406.0,5.28354796,-8.090725683333334,-1.6869598413333335
1518195785609.0,5.240780626666666,-8.102468850000001,-1.8061370880000003
1518195785809.0,5.179843133333334,-8.07453916,-1.8054229746666668
1518195786012.0,5.193490593333333,-8.07477721,-1.8084381113333337
1518195786213.0,5.28941955,-8.009237643333334,-1.8300994880000006
1518195786415.0,5.323379516666667,-7.9894012100000005,-1.7805084221333338
1518195786615.0,5.313461316666666,-8.049227876666668,-1.7343292236666672
1518195786817.0,5.403598033333333,-8.097787443333335,-1.6969573970000005
1518195787019.0,5.3950287,-8.080569420000002,-1.7077484103333336
1518195787219.0,5.377017223333333,-8.081045486666666,-1.725204463666667
1518195787421.0,5.34726258,-8.076443453333333,-1.7156829803333338
1518195787623.0,5.316159066666667,-8.056368986666666,-1.704891963666667
1518195787825.0,5.2703766,-8.076443453333331,-1.7060821503333339
1518195788026.0,5.214834613333334,-8.121670519999999,-1.6371307403333337
1518195788228.0,5.18666689,-8.182052606666666,-1.536679078666667
1518195788429.0,5.2300689899999995,-8.180465706666665,-1.4247222920000002
1518195788630.0,5.1497711399999995,-8.237673973333331,-1.4962127720000002
1518195788832.0,5.028610246666665,-8.207522606666666,-1.6032501253333336
1518195789032.0,4.974179090000001,-8.131430073333334,-1.7090179486666668
1518195789233.0,4.91451112,-8.086996483333333,-1.865249638
1518195789435.0,4.851589986666666,-8.076840249999998,-1.8220062298
1518195789636.0,4.84595644,-8.116830483333333,-1.8147064264666666
1518195789838.0,4.877059953333333,-8.136349516666666,-1.7659881641333333
1518195790040.0,4.89332583,-8.183718906666666,-1.6347503708
1518195790241.0,4.804934716666666,-8.200302173333334,-1.7083038361333334
1518195790442.0,4.776132229999999,-8.211093206666668,-1.7457550071333332
1518195790645.0,4.764865146666666,-8.208078073333333,-1.7771759037999995
1518195790846.0,4.719717443333333,-8.179989693333333,-1.8187530521333328
1518195791048.0,4.757882726666667,-8.094216986666666,-1.8327972421333332
1518195791249.0,4.718765296666666,-8.146823176666667,-1.8319244354666664
1518195791451.0,4.720748939999999,-8.254574643333331,-1.7187774634666666
1518195791652.0,4.756613196666667,-8.258462576666664,-1.5594512901333333
1518195791853.0,4.79842839,-8.302658133333333,-1.5596893268
1518195792055.0,4.74137883,-8.306069983333332,-1.5646881068
1518195792256.0,4.591732830000001,-8.374862716666666,-1.6798187234666666
1518195792457.0,4.535238680000001,-8.362484783333333,-1.8051055893333332
1518195792659.0,4.5367462466666675,-8.29710393,-1.9197601311333334
1518195792861.0,4.434866363333334,-8.258621263333334,-1.9955352744666668
1518195793061.0,4.4224884300000005,-8.27171332,-2.005374144466667
1518195793263.0,4.423440573333333,-8.269015586666667,-2.022750854466667
1518195793464.0,4.434072896666666,-8.270364453333334,-2.0686920178
1518195793665.0,4.456051653333333,-8.287899853333334,-2.1186004678000003
1518195793868.0,4.490249653333333,-8.258303886666667,-2.1381988578000004
1518195794068.0,4.5206390533333325,-8.224264553333335,-2.1435943678
1518195794271.0,4.544601453333333,-8.212680086666667,-2.206594856133333
1518195794471.0,4.4718414399999995,-8.19887392,-2.2687225428
1518195794674.0,4.5820526233333325,-8.09612122,-2.3069671694666667
1518195794874.0,4.685519416666666,-8.112863153333334,-2.2524566727999997
1518195795075.0,4.736935436666666,-8.170706186666667,-2.2288909994666666
1518195795277.0,4.793032853333333,-8.177529909999999,-2.1564483728000003
1518195795478.0,4.789382953333334,-8.178720076666666,-2.2346038910000003
1518195795680.0,4.80025331,-8.157455443333332,-2.2557891943333335
1518195795882.0,4.80723573,-8.139364633333333,-2.3101410000000002
1518195796083.0,4.7957306033333325,-8.120480349999998,-2.3802826
1518195796285.0,4.865396133333333,-8.091201783333332,-2.442965704666667
1518195796485.0,4.8934845199999994,-8.08255309,-2.462088021333333
1518195796688.0,4.885549949999999,-8.087631223333332,-2.4544708346666666
1518195796889.0,4.9092743133333325,-8.108657836666666,-2.480813608
1518195797090.0,4.888882466666667,-8.118338013333332,-2.5151702980000006
1518195797292.0,4.907449353333332,-8.074539196666665,-2.5315155146666672
1518195797493.0,4.896896373333332,-8.049942029999997,-2.586740123333333
1518195797695.0,4.893325816666667,-8.026931763333334,-2.6610077
1518195797897.0,4.903085329999999,-8.006063843333333,-2.6998870966666666
1518195798097.0,4.932839966666665,-7.995272843333333,-2.7270233266666666
1518195798299.0,4.975289919999999,-7.985989389999999,-2.6295074566666665
1518195798500.0,4.982986453333333,-8.012966936666666,-2.5872162
1518195798702.0,4.980526729999999,-8.01201479,-2.5550018433333332
1518195798903.0,4.9791778466666665,-7.9974151566666665,-2.554684463333333
1518195799104.0,4.991079703333333,-7.9972564566666655,-2.5703949099999996
1518195799305.0,4.994491569999999,-7.9971771066666655,-2.5740448133333333
1518195799508.0,5.004727166666666,-7.994796729999999,-2.5718231333333335
1518195799710.0,5.00655211,-7.9901946766666665,-2.5721405166666664
1518195799910.0,5.01020201,-7.987576276666666,-2.5736480866666662
1518195800111.0,5.013931256666667,-7.981307976666666,-2.5742035033333335
1518195800312.0,5.014566023333334,-7.976309186666667,-2.5743621966666668
1518195800514.0,5.025515736666668,-7.9694061099999995,-2.5769806033333333
1518195800716.0,5.031784036666667,-7.966232286666666,-2.5757110733333333
1518195800917.0,5.039083846666667,-7.967501820000001,-2.5765045266666666
1518195801118.0,5.045114126666667,-7.965121420000001,-2.576107793333334
1518195801321.0,5.0485259933333335,-7.96321713,-2.573806766666667
1518195801522.0,5.052889993333333,-7.95940855,-2.5786468533333338
1518195801724.0,5.057650740000001,-7.957821630000001,-2.5749969500000005
1518195801924.0,5.059475693333333,-7.958932473333334,-2.57444153
1518195802126.0,5.060110456666665,-7.956155373333333,-2.5703948999999997
1518195802327.0,5.056936623333333,-7.95940854,-2.560397343333333
1518195802530.0,5.048922699999999,-7.961550866666666,-2.5484954866666665
1518195802730.0,5.015994233333333,-7.970754966666667,-2.5596832299999996
1518195802931.0,4.966799899999999,-8.362960766666667,-2.5710296666666665
1518195803134.0,4.8770599133333326,-8.031057689999997,-2.351004023333333
1518195803335.0,5.50523988,-8.808486906666666,-2.547860713333333
1518195803537.0,5.3032257210000004,-8.44206844,-2.342275993333333
1518195803738.0,5.669168101,-9.416989106666666,-2.60824279
1518195803938.0,5.5152374376666655,-9.083340426666666,-2.3664764333333332
1518195804141.0,5.8004058810000005,-9.839028926666666,-2.6848114033333337
1518195804343.0,5.623464963,-9.48721008,-2.4881134033333336
1518195804543.0,5.814926146333332,-10.274319466666665,-2.913168336666667
1518195804745.0,5.711062622999999,-9.954159553333332,-2.7553497333333343
1518195804947.0,5.7406585796666665,-10.35374452,-2.4511383133333338
1518195805148.0,5.717965709666667,-10.078414923666667,-2.316171273333334
1518195805350.0,5.512936416333334,-10.351205440333334,-2.4411407533333334
1518195805550.0,5.448269669666667,-10.112533566999998,-2.3004608200000005
1518195805752.0,5.477627586333333,-10.245278920333332,-2.42344666
1518195805953.0,5.500241109666666,-10.035250846999999,-2.329660035666667
1518195806154.0,5.426052876333333,-10.035885613666665,-2.461849975666667
1518195806357.0,5.479293843000001,-9.860214227000002,-2.4060699443333338
1518195806557.0,5.442239393,-9.638839717000002,-2.7316253576666667
1518195806759.0,5.514205959666667,-9.509347527,-2.705123891
1518195806961.0,5.396615626333333,-9.373110960333333,-2.575314324333333
1518195807163.0,5.362735003,-9.409768693666669,-2.5842010476666664
1518195807363.0,5.325363169666667,-9.229415910333334,-2.548336791
1518195807564.0,5.288546769666667,-9.329788223666666,-2.651327514333334
1518195807767.0,5.2026947230000005,-9.135311903666668,-2.8266021643333334
1518195807967.0,5.185318013,-9.404214503666667,-2.8154937676666663
1518195808168.0,5.064236469666667,-8.911398340333333,-2.6481536809999997
1518195808370.0,4.948391746333334,-9.365097107,-2.6681487976666665
1518195808571.0,4.851748679666667,-8.871328807,-2.4948577810000003
1518195808774.0,5.092721566333334,-9.583059773666665,-2.4857330243333333
1518195808974.0,4.924746713000001,-8.793490690333332,-2.2620574876666666
1518195809175.0,4.749710089666667,-10.154150513666668,-2.5888824476666663
1518195809377.0,3.8218414096666655,-9.069653427000002,-2.1604156476666665
1518195809578.0,3.644900491999999,-10.245794827000001,-2.5692840476666667
1518195809782.0,3.1285186586666662,-8.975628803666666,-2.121536247666667
1518195809983.0,3.158987408666666,-9.401239170333332,-2.4985076810000004
1518195810184.0,2.7918548553333324,-8.390692271666666,-1.9751434143333335
1518195810384.0,2.7984405486666657,-8.616668838333332,-2.1733489810000006
1518195810585.0,2.4424163786666653,-7.7813966049999985,-1.7676543943333334
1518195810787.0,2.3045928919999987,-7.838684201666666,-1.9376922376666665
1518195810989.0,2.1970794619999987,-7.4319581349999995,-2.170413179666667
1518195811190.0,2.007760611999999,-7.347851691333332,-2.1635894496666674
1518195811393.0,1.9745147619999994,-7.2636659246666655,-1.9471343736666673
1518195811595.0,1.8634307763333333,-7.059350741333333,-2.0344939936666675
1518195811796.0,1.5149444496666664,-7.266046307999999,-1.9224578603333338
1518195811997.0,1.2745269696666668,-7.031183027999999,-1.8726287580000003
1518195812198.0,1.2819854663333332,-7.581762861333333,-1.725521824666667
1518195812399.0,0.962380976333333,-7.315161304666667,-1.7051299793333334
1518195812601.0,0.9776946930000002,-8.529547291333333,-1.7512298460000002
1518195812803.0,0.5393096763333333,-8.293255788000002,-1.5997588993333334
1518195813004.0,0.21208799966666664,-8.924768254666667,-1.556198106
1518195813206.0,0.2625518663333334,-8.616589539666666,-1.4125823826666672
1518195813408.0,0.31976011966666673,-9.069891546333332,-2.1739044060000006
1518195813609.0,0.2559661729999999,-8.770361519666666,-1.9253936626666666
1518195813809.0,0.2039947339999999,-8.890094193,-1.6560150083333331
1518195814011.0,-0.01587220933333333,-8.606909359666668,-1.6047576836666666
1518195814213.0,-0.12076722933333331,-9.207873706333334,-1.7566253603333333
1518195814413.0,-0.06744691599999994,-8.798449839666667,-1.699099723666667
1518195814615.0,-0.20106507933333329,-9.326971573,-1.8577117836666668
1518195814817.0,-0.5682769806666668,-8.660229606333333,-1.7611480646666668
1518195815017.0,-0.4540191706666668,-9.006335556333333,-1.8562042146666669
1518195815219.0,-0.20360413066666663,-8.010348589666668,-1.7361541646666665
1518195815421.0,0.0752960160000001,-8.298690876333334,-1.9057159346666668
1518195815623.0,0.5004302926666666,-7.595846609666666,-1.5188263013333334
1518195815824.0,0.8351898259999999,-7.845864919666666,-1.2962616013333332
1518195816025.0,0.794802863,-7.597195469666666,-0.8092376780000001
1518195816226.0,0.7792511063333333,-7.584658848666667,-0.6756988580000001
1518195816428.0,0.8249542309999999,-7.396530182,-0.283493038
1518195816630.0,0.8814483709999998,-7.132626378666666,0.16885680866666652
1518195816831.0,1.002291874333333,-7.068038975333333,0.5920074386666663
1518195817033.0,1.0105438276666665,-6.725186192,0.8882049473333331
1518195817234.0,1.1278961243333332,-6.792312655333333,1.1475067006666666
1518195817435.0,1.0635467576666664,-6.157070941999999,1.4554473746666665
1518195817637.0,1.0537872366666665,-6.267044081999999,1.7948089613333331
1518195817837.0,1.2121612596666667,-5.550155648666665,2.245254528
1518195818040.0,1.2292205843333333,-5.582131968666666,2.4504425146666664
1518195818240.0,1.1223419223333335,-4.668942275333333,2.863516238
1518195818443.0,1.2387420656666666,-4.750985725333333,3.202481094666666
1518195818644.0,1.1032196090000002,-3.3995697086666667,3.990701327999999
1518195818846.0,1.317849735666667,-3.4051239086666674,4.2282623746666665
1518195819047.0,1.609365845666667,-2.547079458666667,4.469632014666667
1518195819248.0,1.4419464123333339,-2.4566253570000005,4.751785348
1518195819450.0,1.2704010023333339,-1.824081407,5.890475548
1518195819652.0,1.2207305923333336,-1.6650726170000003,6.1615204813333335
1518195819852.0,1.2056549080000003,-1.3793487336666668,6.481601060333333
1518195820053.0,1.291030884666667,-1.0341155836666667,6.834927489
1518195820254.0,1.3641082780000005,-0.5680389336666667,7.231894055666666
1518195820456.0,1.2778594980000004,-0.16075745033333333,7.602835229
1518195820658.0,1.3652984613333339,0.23700256633333322,7.9935334823333335
1518195820859.0,1.3730743393333338,0.6519805830000002,8.316470506666667
1518195821060.0,1.3228485093333338,0.9623809663333335,8.612509336666665
1518195821262.0,1.1838348360000004,1.3560943496666669,9.01296711333333
1518195821463.0,1.0549774126666671,1.6952972330000002,9.369546716666663
